Folder: XRDdatapipeline/docs/GuiliangJun25_tutorial_output/integrals (part 2)

File: MA2-00002_om.chi
MA2-00002.tif Azm= 0.00
2-Theta Angle (Degrees)
Intensity
       2500
 1.03978   7738.89
 1.0819   7531.69
 1.12402   7386.23
 1.16614   7265.38
 1.20826   7182.74
 1.25038   7154.46
 1.2925   7144.44
 1.33462   7145.97
 1.37674   7233.84
 1.41886   7341.06
 1.46098   7520.68
 1.5031   7726.39
 1.54522   7750.63
 1.58734   7694.16
 1.62946   7680.74
 1.67158   7694.2
 1.7137   7736.09
 1.75582   7787.52
 1.79794   7867.18
 1.84006   8012.01
 1.88218   8178.61
 1.9243   8398.65
 1.96642   8571.51
 2.00854   8791.1
 2.05066   8979.5
 2.09278   9217.81
 2.1349   9484.68
 2.17702   9965.86
 2.21914   13604.6
 2.26126   25625.1
 2.30338   11382.7
 2.3455   10848.9
 2.38762   11068.7
 2.42974   11337.9
 2.47186   11681.7
 2.51398   12016.9
 2.5561   12347
 2.59822   12654.8
 2.64034   12821.9
 2.68246   12952.6
 2.72458   13046.2
 2.7667   13009.9
 2.80882   12904.4
 2.85094   12781.3
 2.89306   12638.3
 2.93518   12443.1
 2.9773   12249.9
 3.01942   12008.1
 3.06154   11743.9
 3.10366   11504.8
 3.14578   11329.2
 3.1879   11194.1
 3.23002   11005
 3.27214   10914
 3.31426   10860.6
 3.35638   10763.4
 3.3985   10744.9
 3.44062   10784.3
 3.48274   10795
 3.52486   10738.9
 3.56698   10770.4
 3.6091   10725.1
 3.65122   10643.2
 3.69334   10559.3
 3.73546   10228.4
 3.77758   9803.95
 3.8197   9536.68
 3.86182   9381.38
 3.90394   9078.99
 3.94606   8769.94
 3.98818   8585.16
 4.0303   8393.11
 4.07242   8189.67
 4.11454   8112.13
 4.15666   7943.62
 4.19878   7767.41
 4.2409   7764.77
 4.28302   7738.61
 4.32514   7666.47
 4.36726   7638.71
 4.40938   7582.03
 4.4515   7638.23
 4.49362   9999.57
 4.53574   8230.25
 4.57786   6972.11
 4.61998   6764.05
 4.6621   6735.7
 4.70422   8242.06
 4.74634   8736.37
 4.78846   6560.87
 4.83058   6470.53
 4.8727   8376.05
 4.91482   11829.6
 4.95694   6580.17
 4.99906   6149.18
 5.04118   6089.42
 5.0833   6509.62
 5.12542   8419.89
 5.16754   8633.93
 5.20966   6227.4
 5.25178   5883.61
 5.2939   5804.48
 5.33602   5749.95
 5.37814   5741.33
 5.42026   5802.06
 5.46238   6094.28
 5.5045   8615.17
 5.54662   29010.8
 5.58874   11203.3
 5.63086   6321.24
 5.67298   5828.17
 5.7151   5701.45
 5.75722   5745.4
 5.79934   5700.44
 5.84146   5642.29
 5.88358   5758.61
 5.9257   6569.88
 5.96782   6739.67
 6.00994   6170.92
 6.05206   5757.86
 6.09418   5708.79
 6.1363   5721.4
 6.17842   5765.61
 6.22054   5755.07
 6.26266   5803.06
 6.30478   5853.33
 6.3469   5872.31
 6.38902   5891.86
 6.43114   5957.95
 6.47326   5966.28
 6.51538   6014.09
 6.5575   6093.1
 6.59962   6114.12
 6.64174   6193.46
 6.68386   6374.96
 6.72598   6456.21
 6.7681   6553.36
 6.81022   6578.41
 6.85234   6611.31
 6.89446   6684.24
 6.93658   6880.63
 6.9787   7173.2
 7.02082   9178.21
 7.06294   8218.14
 7.10506   6853.18
 7.14718   6619.64
 7.1893   6543.45
 7.23142   6492.73
 7.27354   6517.87
 7.31566   6495.48
 7.35778   6530.62
 7.3999   6458.87
 7.44202   6408.97
 7.48414   6410.98
 7.52626   6556.02
 7.56838   7651.18
 7.6105   12190
 7.65262   7832.93
 7.69474   6301.37
 7.73686   6028.12
 7.77898   5868.09
 7.8211   5782.6
 7.86322   5708.64
 7.90534   5634.99
 7.94746   5612.43
 7.98958   5643.84
 8.0317   6122.49
 8.07382   10507.4
 8.11594   8502.77
 8.15806   5798.09
 8.20018   5415.15
 8.2423   5343.63
 8.28442   5291.4
 8.32654   5402.72
 8.36866   6402.06
 8.41078   8394.17
 8.4529   5621.52
 8.49502   5215.73
 8.53714   5110.05
 8.57926   5050.9
 8.62138   5025.53
 8.6635   5007.85
 8.70562   4986.98
 8.74774   4974.58
 8.78986   5131.06
 8.83198   6140.8
 8.8741   5955.76
 8.91622   5058.86
 8.95834   5005.17
 9.00046   5412.75
 9.04258   5404.82
 9.0847   4904.32
 9.12682   4865.6
 9.16894   4910.34
 9.21106   5235.55
 9.25318   6872.3
 9.2953   5883.08
 9.33742   5167.98
 9.37954   5327.82
 9.42166   5310.63
 9.46378   6215.99
 9.5059   6074.88
 9.54802   5161.97
 9.59014   4953.64
 9.63226   4935.42
 9.67438   4943.77
 9.7165   4978.42
 9.75862   5313.64
 9.80074   7063.56
 9.84286   8614.02
 9.88498   7103.92
 9.9271   5179.25
 9.96922   5079.32
 10.0113   5081.73
 10.0535   5157.59
 10.0956   5156.71
 10.1377   5048.44
 10.1798   5052.48
 10.2219   5050.05
 10.2641   5264.93
 10.3062   5819.74
 10.3483   5203.1
 10.3904   5037.28
 10.4325   5017.45
 10.4747   5016.5
 10.5168   5060.96
 10.5589   5120.75
 10.601   4971.99
 10.6431   4924.69
 10.6853   5044.02
 10.7274   5372.08
 10.7695   5011.46
 10.8116   4881.35
 10.8537   4830.2
 10.8959   4777.96
 10.938   4736.38
 10.9801   4727.64
 11.0222   4738.02
 11.0643   4909.9
 11.1065   5694.35
 11.1486   5234.87
 11.1907   4727.11
 11.2328   4666.15
 11.2749   4682.27
 11.3171   4595.46
 11.3592   4509.51
 11.4013   4502.79
 11.4434   4518.77
 11.4855   4728.1
 11.5277   5047.99
 11.5698   4603.32
 11.6119   4440.48
 11.654   4375.68
 11.6961   4329.04
 11.7383   4304.38
 11.7804   4286.84
 11.8225   4279.12
 11.8646   4311.56
 11.9067   4490.5
 11.9489   4372.64
 11.991   4614.41
 12.0331   4471.01
 12.0752   4503.82
 12.1173   5219.79
 12.1595   4818.73
 12.2016   4243.2
 12.2437   4118.92
 12.2858   4080.43
 12.3279   4084.78
 12.3701   4267.2
 12.4122   4404.47
 12.4543   4686.23
 12.4964   4537.59
 12.5385   4133.46
 12.5807   4001.7
 12.6228   3976.5
 12.6649   4104.74
 12.6977   4590.95

File: MA2-00002_spotsmasked.chi
MA2-00002.tif Azm= 0.00
2-Theta Angle (Degrees)
Intensity
       2500
 1.03978   7738.89
 1.0819   7531.69
 1.12402   7386.23
 1.16614   7265.38
 1.20826   7182.74
 1.25038   7154.46
 1.2925   7144.44
 1.33462   7145.97
 1.37674   7233.84
 1.41886   7341.06
 1.46098   7520.68
 1.5031   7730.02
 1.54522   7750.63
 1.58734   7694.16
 1.62946   7680.74
 1.67158   7691.24
 1.7137   7733.25
 1.75582   7784.96
 1.79794   7867.18
 1.84006   8012.01
 1.88218   8178.61
 1.9243   8396.3
 1.96642   8574.06
 2.00854   8791.1
 2.05066   8981.62
 2.09278   9217.81
 2.1349   9484.68
 2.17702   9968.11
 2.21914   13604.6
 2.26126   25625.1
 2.30338   11382.7
 2.3455   10848.9
 2.38762   11066.8
 2.42974   11337.9
 2.47186   11688.5
 2.51398   12017.2
 2.5561   12347
 2.59822   12656.6
 2.64034   12822
 2.68246   12952.6
 2.72458   13046.2
 2.7667   13011.7
 2.80882   12906.2
 2.85094   12783.3
 2.89306   12639.9
 2.93518   12441.7
 2.9773   12249.9
 3.01942   12008.1
 3.06154   11743.9
 3.10366   11501.6
 3.14578   11334
 3.1879   11194.2
 3.23002   11008.7
 3.27214   10914
 3.31426   10862.6
 3.35638   10762.1
 3.3985   10744.9
 3.44062   10784.3
 3.48274   10795
 3.52486   10738.9
 3.56698   10770.4
 3.6091   10725.1
 3.65122   10643.2
 3.69334   10559.3
 3.73546   10228.4
 3.77758   9803.95
 3.8197   9536.68
 3.86182   9381.38
 3.90394   9078.99
 3.94606   8769.94
 3.98818   8585.16
 4.0303   8393.11
 4.07242   8189.67
 4.11454   8112.13
 4.15666   7943.62
 4.19878   7767.41
 4.2409   7764.77
 4.28302   7738.61
 4.32514   7670.76
 4.36726   7638.71
 4.40938   7582.03
 4.4515   7638.23
 4.49362   9999.57
 4.53574   8230.25
 4.57786   6972.11
 4.61998   6764.05
 4.6621   6735.7
 4.70422   8242.06
 4.74634   8736.37
 4.78846   6560.87
 4.83058   6472.14
 4.8727   8382.73
 4.91482   11829.6
 4.95694   6584.09
 4.99906   6149.18
 5.04118   6092.64
 5.0833   6582.55
 5.12542   19887.3
 5.16754   19524.7
 5.20966   6358.8
 5.25178   5886.03
 5.2939   5804.48
 5.33602   5749.95
 5.37814   5740.37
 5.42026   5803.13
 5.46238   6094.28
 5.5045   8615.17
 5.54662   29010.8
 5.58874   11203.3
 5.63086   6322.2
 5.67298   5827.1
 5.7151   5703.18
 5.75722   5746.52
 5.79934   5700.42
 5.84146   5643.13
 5.88358   5758.61
 5.9257   8838.36
 5.96782   7788.15
 6.00994   6171.82
 6.05206   5760.24
 6.09418   5709.86
 6.1363   5721.4
 6.17842   5765.61
 6.22054   5755.07
 6.26266   5806.09
 6.30478   5856.37
 6.3469   5873.93
 6.38902   5895.37
 6.43114   5959.83
 6.47326   5966.28
 6.51538   6016.49
 6.5575   6093.1
 6.59962   6114.12
 6.64174   6193.46
 6.68386   6374.96
 6.72598   6456.21
 6.7681   6553.36
 6.81022   6578.41
 6.85234   6611.31
 6.89446   6684.24
 6.93658   6880.63
 6.9787   7176.48
 7.02082   9178.21
 7.06294   8227.66
 7.10506   6853.18
 7.14718   6624.57
 7.1893   6543.45
 7.23142   6492.73
 7.27354   6519.23
 7.31566   6497.92
 7.35778   6531.72
 7.3999   6459.78
 7.44202   6410.87
 7.48414   6410.98
 7.52626   6556.02
 7.56838   7661.08
 7.6105   12193.1
 7.65262   7832.93
 7.69474   6304.25
 7.73686   6028.12
 7.77898   5868.09
 7.8211   5782.6
 7.86322   5708.64
 7.90534   5634.99
 7.94746   5618.5
 7.98958   5643.84
 8.0317   6122.49
 8.07382   10507.4
 8.11594   8502.77
 8.15806   5798.09
 8.20018   5420.32
 8.2423   5343.63
 8.28442   5291.4
 8.32654   5402.72
 8.36866   6403.5
 8.41078   9864.33
 8.4529   5621.52
 8.49502   5215.73
 8.53714   5110.94
 8.57926   5050.9
 8.62138   5027.32
 8.6635   5008.65
 8.70562   4988.53
 8.74774   4974.58
 8.78986   5133.24
 8.83198   6140.8
 8.8741   5958.55
 8.91622   5058.86
 8.95834   5004.48
 9.00046   5414.35
 9.04258   5404.82
 9.0847   4904.92
 9.12682   4865.01
 9.16894   4909.89
 9.21106   5234.92
 9.25318   6873.48
 9.2953   5883.08
 9.33742   5169.07
 9.37954   5329.63
 9.42166   5310.61
 9.46378   6216.56
 9.5059   6075.85
 9.54802   5161.5
 9.59014   4954.77
 9.63226   4935.42
 9.67438   4944.89
 9.7165   4979.21
 9.75862   5313.07
 9.80074   7063.56
 9.84286   8999.93
 9.88498   8204.75
 9.9271   5179.25
 9.96922   5080.05
 10.0113   5083.66
 10.0535   5161.14
 10.0956   5158.72
 10.1377   5049.81
 10.1798   5055.88
 10.2219   5051.41
 10.2641   5275.69
 10.3062   8235.51
 10.3483   5204.57
 10.3904   5038.1
 10.4325   5017.45
 10.4747   5017.5
 10.5168   5065
 10.5589   5121.5
 10.601   4974.82
 10.6431   4926.91
 10.6853   5046.83
 10.7274   5374.34
 10.7695   5012.11
 10.8116   4882.61
 10.8537   4830.86
 10.8959   4779.54
 10.938   4736.88
 10.9801   4727.16
 11.0222   4737.59
 11.0643   4909.31
 11.1065   5696.19
 11.1486   5235.36
 11.1907   4726.65
 11.2328   4667.5
 11.2749   4681.36
 11.3171   4595.35
 11.3592   4509.23
 11.4013   4503.97
 11.4434   4518.37
 11.4855   4728.48
 11.5277   5048.41
 11.5698   4604.15
 11.6119   4440.96
 11.654   4375.65
 11.6961   4330.27
 11.7383   4305.65
 11.7804   4288.33
 11.8225   4279.66
 11.8646   4312.64
 11.9067   4866.52
 11.9489   4373.56
 11.991   4615.66
 12.0331   4473.1
 12.0752   4503.21
 12.1173   5221.74
 12.1595   4819.12
 12.2016   4245.32
 12.2437   4119.96
 12.2858   4081.05
 12.3279   4085.41
 12.3701   4269.95
 12.4122   4405.25
 12.4543   4687.6
 12.4964   4537.07
 12.5385   4133.73
 12.5807   4002.62
 12.6228   3976.48
 12.6649   4106.65
 12.6977   4595.97

File: MA2-00003_arcsmasked.chi
MA2-00003.tif Azm= 0.00
2-Theta Angle (Degrees)
Intensity
       2500
 1.03978   7774.04
 1.0819   7571.28
 1.12402   7424.02
 1.16614   7294.68
 1.20826   7231.66
 1.25038   7184.47
 1.2925   7174.46
 1.33462   7383.65
 1.37674   7294.36
 1.41886   7376.19
 1.46098   7605.87
 1.5031   7776.48
 1.54522   7799.51
 1.58734   7749.38
 1.62946   7712.78
 1.67158   7764.34
 1.7137   7742.55
 1.75582   7774.27
 1.79794   7886.57
 1.84006   8059.49
 1.88218   8188.18
 1.9243   8436.77
 1.96642   8644.59
 2.00854   8803.01
 2.05066   9011.21
 2.09278   9298.9
 2.1349   9532.63
 2.17702   10129.9
 2.21914   15085.3
 2.26126   24275.7
 2.30338   11272.3
 2.3455   10880.3
 2.38762   11078.6
 2.42974   11385.2
 2.47186   11758.2
 2.51398   12075.5
 2.5561   12376.2
 2.59822   12682.7
 2.64034   12862.3
 2.68246   13042.4
 2.72458   13125
 2.7667   13088.7
 2.80882   12995.1
 2.85094   12861.9
 2.89306   12684.4
 2.93518   12537.3
 2.9773   12301.4
 3.01942   12060.5
 3.06154   11813.3
 3.10366   11562.8
 3.14578   11417.9
 3.1879   11246.6
 3.23002   11078.4
 3.27214   10975.9
 3.31426   10944
 3.35638   10831.4
 3.3985   10874.8
 3.44062   10902.4
 3.48274   10908.1
 3.52486   10873.6
 3.56698   10974.6
 3.6091   10982.9
 3.65122   11005.9
 3.69334   11361.7
 3.73546   11512.4
 3.77758   11773.2
 3.8197   13009
 3.86182   14016.1
 3.90394   20317.8
 3.94606   69486
 3.98818   57099.5
 4.0303   17793.2
 4.07242   13087.1
 4.11454   11535
 4.15666   10183.1
 4.19878   9642.61
 4.2409   9120.18
 4.28302   8516.42
 4.32514   8183.26
 4.36726   7896.71
 4.40938   7696.23
 4.4515   7886.22
 4.49362   10148.9
 4.53574   7989.57
 4.57786   7003.54
 4.61998   6799.72
 4.6621   6746.37
 4.70422   7867.29
 4.74634   9242.45
 4.78846   6750.19
 4.83058   6485.03
 4.8727   7939.9
 4.91482   12100.1
 4.95694   6858.29
 4.99906   6207.13
 5.04118   6113.51
 5.0833   6542.93
 5.12542   8534.58
 5.16754   8659.84
 5.20966   6258.76
 5.25178   5956.54
 5.2939   5845.9
 5.33602   5790.93
 5.37814   5816.12
 5.42026   5847.7
 5.46238   6089.5
 5.5045   8295.67
 5.54662   27433.7
 5.58874   12582.4
 5.63086   6549.09
 5.67298   5889.34
 5.7151   5729.49
 5.75722   5807.59
 5.79934   5749.32
 5.84146   5668.21
 5.88358   5807.54
 5.9257   6667.17
 5.96782   6749.95
 6.00994   6242.74
 6.05206   5814.86
 6.09418   5728.96
 6.1363   5744.06
 6.17842   5782.67
 6.22054   5784.71
 6.26266   5836
 6.30478   5890.2
 6.3469   5906.83
 6.38902   5964.87
 6.43114   6042.32
 6.47326   6135.25
 6.51538   6261.87
 6.5575   6371.26
 6.59962   6550.43
 6.64174   6788.03
 6.68386   6994.48
 6.72598   7169.47
 6.7681   7592.25
 6.81022   8069.71
 6.85234   12177.8
 6.89446   20997.9
 6.93658   8583.65
 6.9787   8435.15
 7.02082   10006.5
 7.06294   8709.54
 7.10506   7287.95
 7.14718   7011.28
 7.1893   6823.74
 7.23142   6734.47
 7.27354   6768.26
 7.31566   6637.18
 7.35778   6604.88
 7.3999   6506.2
 7.44202   6438.13
 7.48414   6465.12
 7.52626   6635.02
 7.56838   7927.15
 7.6105   11945.2
 7.65262   7796.84
 7.69474   6520.23
 7.73686   6354.89
 7.77898   6351.87
 7.8211   6407.23
 7.86322   6407.73
 7.90534   6686.93
 7.94746   18430.7
 7.98958   6688.43
 8.0317   6589.51
 8.07382   9766.75
 8.11594   9635.49
 8.15806   6657.68
 8.20018   5859.7
 8.2423   5676.64
 8.28442   5573.48
 8.32654   5565.35
 8.36866   6379.98
 8.41078   11142.4
 8.4529   5983.67
 8.49502   5352.11
 8.53714   5202.22
 8.57926   5137.27
 8.62138   5089.84
 8.6635   5075.07
 8.70562   5066.93
 8.74774   5077.21
 8.78986   5323.81
 8.83198   6398.55
 8.8741   8205.12
 8.91622   5202.58
 8.95834   5162.17
 9.00046   5519.91
 9.04258   5327.56
 9.0847   4952.41
 9.12682   4904.42
 9.16894   4940.82
 9.21106   5197.9
 9.25318   6616.41
 9.2953   6093.52
 9.33742   5218.4
 9.37954   5328.68
 9.42166   5377.91
 9.46378   6215.52
 9.5059   6130.66
 9.54802   5213.04
 9.59014   5001.43
 9.63226   4978.35
 9.67438   5045.4
 9.7165   6586.7
 9.75862   5351.79
 9.80074   6691.85
 9.84286   8972.03
 9.88498   7913.24
 9.9271   5236.36
 9.96922   5102.83
 10.0113   5102.18
 10.0535   5162.13
 10.0956   5197.04
 10.1377   5096.93
 10.1798   5069.95
 10.2219   5081.33
 10.2641   5293.61
 10.3062   5867.45
 10.3483   5246.55
 10.3904   5141.08
 10.4325   5106.97
 10.4747   5427.51
 10.5168   5607.96
 10.5589   5186.61
 10.601   5052.05
 10.6431   5002.92
 10.6853   5065.37
 10.7274   5387.17
 10.7695   5106.16
 10.8116   4927.88
 10.8537   4856.47
 10.8959   4799.68
 10.938   4761.92
 10.9801   4742.88
 11.0222   4757.1
 11.0643   4888.1
 11.1065   5580.49
 11.1486   5339.46
 11.1907   4787.94
 11.2328   4889.97
 11.2749   4691.82
 11.3171   4615.32
 11.3592   4527.51
 11.4013   4526.69
 11.4434   4580.6
 11.4855   4795.05
 11.5277   4975.77
 11.5698   4579.94
 11.6119   4439.22
 11.654   4384.74
 11.6961   4353.38
 11.7383   4325.13
 11.7804   4307.31
 11.8225   4298.75
 11.8646   4330.37
 11.9067   4560.26
 11.9489   4394.8
 11.991   4617.46
 12.0331   4514.09
 12.0752   4545.66
 12.1173   5207.61
 12.1595   4796.18
 12.2016   4261.29
 12.2437   4133.7
 12.2858   4093.25
 12.3279   4082.15
 12.3701   4214
 12.4122   4380.26
 12.4543   4631.83
 12.4964   4618.47
 12.5385   4203.47
 12.5807   4039.73
 12.6228   3992.11
 12.6649   4073.49
 12.6977   4412.88

File: MA2-00003_om.chi
MA2-00003.tif Azm= 0.00
2-Theta Angle (Degrees)
Intensity
       2500
 1.03978   7774.04
 1.0819   7571.28
 1.12402   7424.02
 1.16614   7294.68
 1.20826   7239.4
 1.25038   7184.47
 1.2925   7170.77
 1.33462   7207.72
 1.37674   7285.51
 1.41886   7365.67
 1.46098   7601.53
 1.5031   7770.07
 1.54522   7796.06
 1.58734   7744.17
 1.62946   7712.78
 1.67158   7750.66
 1.7137   7734.3
 1.75582   7774.27
 1.79794   7882.15
 1.84006   8048
 1.88218   8181.83
 1.9243   8431.44
 1.96642   8631.84
 2.00854   8798.01
 2.05066   9004.93
 2.09278   9293.93
 2.1349   9528.48
 2.17702   10129.9
 2.21914   15085.3
 2.26126   24275.7
 2.30338   11272.3
 2.3455   10876.4
 2.38762   11073.7
 2.42974   11381.3
 2.47186   11751.5
 2.51398   12072.6
 2.5561   12373.6
 2.59822   12674.6
 2.64034   12857.6
 2.68246   12990.7
 2.72458   13085.1
 2.7667   13054
 2.80882   12970.8
 2.85094   12833.3
 2.89306   12665
 2.93518   12517.1
 2.9773   12279.5
 3.01942   12039.6
 3.06154   11789.9
 3.10366   11544.8
 3.14578   11393.4
 3.1879   11227.6
 3.23002   11059.8
 3.27214   10949.3
 3.31426   10897.4
 3.35638   10799.2
 3.3985   10811.1
 3.44062   10814.9
 3.48274   10823.2
 3.52486   10774.6
 3.56698   10766.9
 3.6091   10741.1
 3.65122   10638.7
 3.69334   10603.3
 3.73546   10263.4
 3.77758   9873.09
 3.8197   9602.87
 3.86182   9437.88
 3.90394   9095.01
 3.94606   8822.89
 3.98818   8597.24
 4.0303   8444.02
 4.07242   8210.64
 4.11454   8139.29
 4.15666   8002.86
 4.19878   7801.57
 4.2409   7792.2
 4.28302   7822.75
 4.32514   7700.39
 4.36726   7644.42
 4.40938   7596.69
 4.4515   7875.05
 4.49362   10145.7
 4.53574   7987.56
 4.57786   7003.54
 4.61998   6799.72
 4.6621   6746.37
 4.70422   7867.29
 4.74634   9242.45
 4.78846   6750.19
 4.83058   6481.46
 4.8727   7936.77
 4.91482   12100.1
 4.95694   6855.27
 4.99906   6204.61
 5.04118   6109.63
 5.0833   6542.93
 5.12542   8458.47
 5.16754   8647.29
 5.20966   6254.33
 5.25178   5917.65
 5.2939   5820.9
 5.33602   5768.2
 5.37814   5762.01
 5.42026   5820.73
 5.46238   6078.23
 5.5045   8285.36
 5.54662   27433.7
 5.58874   12322.3
 5.63086   6417.68
 5.67298   5860.91
 5.7151   5720.84
 5.75722   5774.08
 5.79934   5723.18
 5.84146   5659.88
 5.88358   5791.74
 5.9257   6602.1
 5.96782   6749.95
 6.00994   6223.23
 6.05206   5797.59
 6.09418   5727.81
 6.1363   5744.06
 6.17842   5782.67
 6.22054   5784.71
 6.26266   5834.3
 6.30478   5884.32
 6.3469   5897.69
 6.38902   5921.47
 6.43114   5968.68
 6.47326   5969.04
 6.51538   6028.5
 6.5575   6110.22
 6.59962   6146.18
 6.64174   6228.05
 6.68386   6390.17
 6.72598   6478.51
 6.7681   6565.24
 6.81022   6591.78
 6.85234   6649.08
 6.89446   6688.26
 6.93658   6909.54
 6.9787   7253.85
 7.02082   9297.13
 7.06294   8194.47
 7.10506   6856.06
 7.14718   6644.79
 7.1893   6553.59
 7.23142   6514.66
 7.27354   6560.55
 7.31566   6511.44
 7.35778   6545.73
 7.3999   6486.55
 7.44202   6434.24
 7.48414   6465.12
 7.52626   6635.02
 7.56838   7923.37
 7.6105   11914
 7.65262   7732.53
 7.69474   6298.55
 7.73686   6061.18
 7.77898   5885.63
 7.8211   5816.77
 7.86322   5731.37
 7.90534   5654.32
 7.94746   5636.51
 7.98958   5625.08
 8.0317   5955.99
 8.07382   9360.45
 8.11594   9225.06
 8.15806   6246.57
 8.20018   5526.56
 8.2423   5380.2
 8.28442   5316.86
 8.32654   5375.37
 8.36866   6199.95
 8.41078   8495.46
 8.4529   5868.09
 8.49502   5284.91
 8.53714   5145.98
 8.57926   5096.3
 8.62138   5050.39
 8.6635   5026.79
 8.70562   5006.38
 8.74774   5007.18
 8.78986   5242.72
 8.83198   6226.63
 8.8741   5832.56
 8.91622   5081.88
 8.95834   5093.11
 9.00046   5456.98
 9.04258   5279.23
 9.0847   4905.91
 9.12682   4867.64
 9.16894   4921.17
 9.21106   5189.53
 9.25318   6613.47
 9.2953   6091.25
 9.33742   5217.01
 9.37954   5325.73
 9.42166   5373.22
 9.46378   6214.7
 9.5059   6127.73
 9.54802   5197.25
 9.59014   4977.17
 9.63226   4944.71
 9.67438   4946.64
 9.7165   4991.79
 9.75862   5243.35
 9.80074   6653.77
 9.84286   8740.44
 9.88498   7286.42
 9.9271   5235.92
 9.96922   5102.14
 10.0113   5100.96
 10.0535   5160.15
 10.0956   5192.99
 10.1377   5096.36
 10.1798   5066.19
 10.2219   5070.5
 10.2641   5293.61
 10.3062   5852.77
 10.3483   5218.53
 10.3904   5061.88
 10.4325   5027.49
 10.4747   5042.24
 10.5168   5072.23
 10.5589   5121.41
 10.601   4981.67
 10.6431   4954.19
 10.6853   5039.1
 10.7274   5362.77
 10.7695   5090.9
 10.8116   4916.78
 10.8537   4851.15
 10.8959   4797.43
 10.938   4759.73
 10.9801   4741.34
 11.0222   4755.28
 11.0643   4890.7
 11.1065   5579.15
 11.1486   5337.87
 11.1907   4785.11
 11.2328   4713.4
 11.2749   4691.83
 11.3171   4613.27
 11.3592   4527.76
 11.4013   4526.69
 11.4434   4580.94
 11.4855   4793.88
 11.5277   4975.45
 11.5698   4579.33
 11.6119   4439.22
 11.654   4384.74
 11.6961   4352.4
 11.7383   4323.66
 11.7804   4303.72
 11.8225   4294.52
 11.8646   4324.27
 11.9067   4499.55
 11.9489   4383.67
 11.991   4604.86
 12.0331   4508.15
 12.0752   4545
 12.1173   5198.42
 12.1595   4794.9
 12.2016   4259.51
 12.2437   4131.09
 12.2858   4090.48
 12.3279   4078.2
 12.3701   4209.64
 12.4122   4376.27
 12.4543   4628.42
 12.4964   4617.42
 12.5385   4200.98
 12.5807   4036.43
 12.6228   3991.23
 12.6649   4072.17
 12.6977   4407.85