Folder: XRDdatapipeline/docs/GuiliangJun25_tutorial_output/integrals (part 5)

File: MA2b-00003_om.chi
MA2b-00003.tif Azm= 0.00
2-Theta Angle (Degrees)
Intensity
       2500
 1.03978   7726.33
 1.0819   7534.11
 1.12402   7383.34
 1.16614   7248.56
 1.20826   7192.04
 1.25038   7151.77
 1.2925   7134.82
 1.33462   7178.76
 1.37674   7230.52
 1.41886   7319.76
 1.46098   7544.56
 1.5031   7744.51
 1.54522   7805.56
 1.58734   7758.51
 1.62946   7728.11
 1.67158   7717.96
 1.7137   7764.19
 1.75582   7794.05
 1.79794   7888.19
 1.84006   8035.16
 1.88218   8215.04
 1.9243   8407.15
 1.96642   8647.72
 2.00854   8867.25
 2.05066   9101.68
 2.09278   9651.42
 2.1349   16036.2
 2.17702   24511.6
 2.21914   15039
 2.26126   11614.5
 2.30338   10528
 2.3455   10695.6
 2.38762   10931.2
 2.42974   11256.8
 2.47186   11584.3
 2.51398   11937.9
 2.5561   12221.2
 2.59822   12496.3
 2.64034   12700.3
 2.68246   12812.8
 2.72458   12881.2
 2.7667   12848.1
 2.80882   12760.4
 2.85094   12663.1
 2.89306   12496.3
 2.93518   12331.3
 2.9773   12147.8
 3.01942   11926.8
 3.06154   11662.2
 3.10366   11427
 3.14578   11233.5
 3.1879   11082.3
 3.23002   10939.2
 3.27214   10843.3
 3.31426   10786.2
 3.35638   10723.6
 3.3985   10747.6
 3.44062   10765.7
 3.48274   10767.6
 3.52486   10749.9
 3.56698   10765
 3.6091   10744.3
 3.65122   10635.9
 3.69334   10593.1
 3.73546   10261
 3.77758   9872.92
 3.8197   9610.13
 3.86182   9377.2
 3.90394   9059.42
 3.94606   8794.08
 3.98818   8639.33
 4.0303   8419.89
 4.07242   8208.98
 4.11454   8166.41
 4.15666   8018.73
 4.19878   7830.78
 4.2409   7905.55
 4.28302   8508.55
 4.32514   8907.65
 4.36726   8824.85
 4.40938   8107.52
 4.4515   7688.98
 4.49362   7524.85
 4.53574   7112.61
 4.57786   6924.99
 4.61998   6773.14
 4.6621   6663.21
 4.70422   6635.81
 4.74634   7092.04
 4.78846   8324.43
 4.83058   9141.91
 4.8727   7337.05
 4.91482   7862.69
 4.95694   8518.46
 4.99906   8641.96
 5.04118   6989.95
 5.0833   6820.74
 5.12542   8683.9
 5.16754   8594.52
 5.20966   6325.71
 5.25178   5985.59
 5.2939   5896.03
 5.33602   5837.27
 5.37814   5840.23
 5.42026   5918.96
 5.46238   6134.19
 5.5045   7167.59
 5.54662   11910.5
 5.58874   12042.7
 5.63086   8402.98
 5.67298   6734.65
 5.7151   6122.95
 5.75722   6059.31
 5.79934   5980.9
 5.84146   5981.79
 5.88358   6304.34
 5.9257   7650.16
 5.96782   8238.62
 6.00994   7296.87
 6.05206   6371.99
 6.09418   5956.72
 6.1363   5877.39
 6.17842   5874.47
 6.22054   5848.59
 6.26266   5876.35
 6.30478   5926.08
 6.3469   5939.73
 6.38902   5951.23
 6.43114   6009.5
 6.47326   5999.64
 6.51538   6075.49
 6.5575   6146.67
 6.59962   6177.51
 6.64174   6262.42
 6.68386   6425.16
 6.72598   6480.5
 6.7681   6613.77
 6.81022   6744.73
 6.85234   6924.45
 6.89446   7309.04
 6.93658   8030.04
 6.9787   8149.17
 7.02082   7993.07
 7.06294   7651.03
 7.10506   6980.77
 7.14718   6753.04
 7.1893   6676.83
 7.23142   6634.58
 7.27354   6678.99
 7.31566   6681
 7.35778   6846.51
 7.3999   6945.29
 7.44202   7081.8
 7.48414   7266.62
 7.52626   7462.69
 7.56838   7555.29
 7.6105   7240.54
 7.65262   6480.17
 7.69474   6176.82
 7.73686   6042.33
 7.77898   5914.1
 7.8211   5830.79
 7.86322   5754.86
 7.90534   5657.77
 7.94746   5647.65
 7.98958   5602.75
 8.0317   5522.84
 8.07382   5661.54
 8.11594   5950.11
 8.15806   6053.59
 8.20018   6525.67
 8.2423   7231.43
 8.28442   7015.72
 8.32654   6128.43
 8.36866   5769.22
 8.41078   7134.52
 8.4529   6002.92
 8.49502   6269.76
 8.53714   6496.24
 8.57926   6471.93
 8.62138   6060.24
 8.6635   5712.64
 8.70562   5577.71
 8.74774   5509.67
 8.78986   5403.59
 8.83198   5287.41
 8.8741   5092.95
 8.91622   5001.34
 8.95834   4981.66
 9.00046   4978.27
 9.04258   4926.96
 9.0847   4918.09
 9.12682   4954.4
 9.16894   5014.47
 9.21106   5166.46
 9.25318   5425.83
 9.2953   5676.9
 9.33742   5731.3
 9.37954   5581.94
 9.42166   5343.45
 9.46378   5263.43
 9.5059   5289.34
 9.54802   5289.98
 9.59014   5331.03
 9.63226   5326.2
 9.67438   5280.23
 9.7165   5172.59
 9.75862   5080.44
 9.80074   5236.85
 9.84286   7615.07
 9.88498   7231.52
 9.9271   5546.31
 9.96922   5450.89
 10.0113   5392.4
 10.0535   5269.22
 10.0956   5198.36
 10.1377   5231.9
 10.1798   5289.93
 10.2219   5372.43
 10.2641   5560.92
 10.3062   5962.01
 10.3483   5286.1
 10.3904   5139.97
 10.4325   5166.31
 10.4747   5226.9
 10.5168   5236.85
 10.5589   5191.42
 10.601   5087.03
 10.6431   5042.57
 10.6853   5024.76
 10.7274   5092.7
 10.7695   5123.42
 10.8116   5099.34
 10.8537   5045.89
 10.8959   4976.49
 10.938   4893.75
 10.9801   4836.12
 11.0222   4817.02
 11.0643   4839.37
 11.1065   4957.47
 11.1486   5038.96
 11.1907   4936.55
 11.2328   4861.42
 11.2749   4750.66
 11.3171   4683.49
 11.3592   4609.95
 11.4013   4566.5
 11.4434   4530.97
 11.4855   4515.05
 11.5277   4480.73
 11.5698   4425.94
 11.6119   4416.01
 11.654   4389.46
 11.6961   4354.63
 11.7383   4355.86
 11.7804   4349.79
 11.8225   4375.32
 11.8646   4441.41
 11.9067   4646.9
 11.9489   4517.28
 11.991   4552.9
 12.0331   4518.85
 12.0752   4474.38
 12.1173   4424.12
 12.1595   4283.67
 12.2016   4178.83
 12.2437   4137.09
 12.2858   4100.31
 12.3279   4102.65
 12.3701   4133.12
 12.4122   4148.75
 12.4543   4170.17
 12.4964   4183.58
 12.5385   4170.31
 12.5807   4185.07
 12.6228   4232.29
 12.6649   4265.26
 12.6977   4240.14

File: MA2b-00003_spotsmasked.chi
MA2b-00003.tif Azm= 0.00
2-Theta Angle (Degrees)
Intensity
       2500
 1.03978   7726.33
 1.0819   7542.99
 1.12402   7383.34
 1.16614   7254.35
 1.20826   7195.94
 1.25038   7147.47
 1.2925   7134.82
 1.33462   7174.53
 1.37674   7226.79
 1.41886   7323.3
 1.46098   7544.54
 1.5031   7744.51
 1.54522   7805.56
 1.58734   7758.51
 1.62946   7724.67
 1.67158   7717.96
 1.7137   7766.91
 1.75582   7794.05
 1.79794   7888.31
 1.84006   8035.16
 1.88218   8217.28
 1.9243   8409.42
 1.96642   8647.72
 2.00854   8859.7
 2.05066   9105.5
 2.09278   9651.42
 2.1349   16036.2
 2.17702   24511.6
 2.21914   15039
 2.26126   11621.2
 2.30338   10526.3
 2.3455   10697.8
 2.38762   10931.2
 2.42974   11258.4
 2.47186   11584.3
 2.51398   11938.1
 2.5561   12222.9
 2.59822   12496.3
 2.64034   12706.8
 2.68246   12811.1
 2.72458   12881.2
 2.7667   12851.7
 2.80882   12758.9
 2.85094   12661.2
 2.89306   12496.3
 2.93518   12331.3
 2.9773   12147.8
 3.01942   11928.3
 3.06154   11662.1
 3.10366   11425.6
 3.14578   11233.5
 3.1879   11082.3
 3.23002   10939.2
 3.27214   10841.4
 3.31426   10786.1
 3.35638   10719.9
 3.3985   10745.3
 3.44062   10770
 3.48274   10770
 3.52486   10749.9
 3.56698   10768.2
 3.6091   10744.3
 3.65122   10635.9
 3.69334   10593.1
 3.73546   10261
 3.77758   9872.92
 3.8197   9610.13
 3.86182   9377.2
 3.90394   9059.42
 3.94606   8794.08
 3.98818   8639.33
 4.0303   8419.89
 4.07242   8208.98
 4.11454   8166.41
 4.15666   8018.73
 4.19878   7830.78
 4.2409   7905.55
 4.28302   8508.55
 4.32514   8907.65
 4.36726   8824.85
 4.40938   8107.52
 4.4515   7688.98
 4.49362   7524.85
 4.53574   7112.61
 4.57786   6924.99
 4.61998   6773.14
 4.6621   6663.21
 4.70422   6635.81
 4.74634   7093.72
 4.78846   8324.43
 4.83058   9141.91
 4.8727   7337.05
 4.91482   7864.08
 4.95694   8519.97
 4.99906   8643.35
 5.04118   6989.95
 5.0833   6876.42
 5.12542   20891.6
 5.16754   19261.3
 5.20966   6437.8
 5.25178   5985.59
 5.2939   5897.22
 5.33602   5837.27
 5.37814   5841.29
 5.42026   5918.82
 5.46238   6134.19
 5.5045   7169.2
 5.54662   11910.5
 5.58874   12042.7
 5.63086   8402.98
 5.67298   6734.65
 5.7151   6122.95
 5.75722   6061.22
 5.79934   5981.87
 5.84146   5981.79
 5.88358   6305.21
 5.9257   10038.4
 5.96782   9256.36
 6.00994   7299.08
 6.05206   6373.78
 6.09418   5957.91
 6.1363   5878.58
 6.17842   5874.47
 6.22054   5849.99
 6.26266   5876.35
 6.30478   5927.55
 6.3469   5941.37
 6.38902   5952.97
 6.43114   6013.32
 6.47326   5999.64
 6.51538   6075.49
 6.5575   6151.91
 6.59962   6177.51
 6.64174   6262.42
 6.68386   6428.77
 6.72598   6480.5
 6.7681   6613.77
 6.81022   6744.73
 6.85234   6924.45
 6.89446   7309.04
 6.93658   8033.65
 6.9787   8149.17
 7.02082   7996.06
 7.06294   7664.26
 7.10506   6980.77
 7.14718   6755.41
 7.1893   6676.83
 7.23142   6636.31
 7.27354   6678.99
 7.31566   6683.63
 7.35778   6846.51
 7.3999   6947.17
 7.44202   7082.82
 7.48414   7266.62
 7.52626   7462.69
 7.56838   7555.29
 7.6105   7240.54
 7.65262   6480.17
 7.69474   6176.82
 7.73686   6043.38
 7.77898   5914.1
 7.8211   5833.87
 7.86322   5754.86
 7.90534   5659.51
 7.94746   5657.12
 7.98958   5602.75
 8.0317   5525.69
 8.07382   5664.54
 8.11594   5951.49
 8.15806   6053.59
 8.20018   6525.67
 8.2423   7234.34
 8.28442   7015.72
 8.32654   6134.57
 8.36866   5771.79
 8.41078   8597.27
 8.4529   6004.08
 8.49502   6271.65
 8.53714   6498.94
 8.57926   6474.65
 8.62138   6060.24
 8.6635   5712.64
 8.70562   5581.01
 8.74774   5510.53
 8.78986   5407.85
 8.83198   5288.16
 8.8741   5094.35
 8.91622   5001.34
 8.95834   4982.35
 9.00046   4978.27
 9.04258   4926.96
 9.0847   4920.53
 9.12682   4953.33
 9.16894   5015.76
 9.21106   5166.97
 9.25318   5426.29
 9.2953   5681.58
 9.33742   5731.77
 9.37954   5584.21
 9.42166   5343.93
 9.46378   5263.92
 9.5059   5289.34
 9.54802   5290.48
 9.59014   5332.54
 9.63226   5328.09
 9.67438   5280.85
 9.7165   5173
 9.75862   5079.84
 9.80074   5236.85
 9.84286   8210.69
 9.88498   8114.71
 9.9271   5546.31
 9.96922   5451.32
 10.0113   5392.4
 10.0535   5269.9
 10.0956   5202.25
 10.1377   5231.9
 10.1798   5290.57
 10.2219   5374.34
 10.2641   5574.75
 10.3062   8362.99
 10.3483   5286.1
 10.3904   5140.57
 10.4325   5167.13
 10.4747   5230.4
 10.5168   5239.85
 10.5589   5191.42
 10.601   5087.82
 10.6431   5043.22
 10.6853   5026.81
 10.7274   5096.7
 10.7695   5125.88
 10.8116   5102.65
 10.8537   5049.89
 10.8959   4977.59
 10.938   4894.23
 10.9801   4837.09
 11.0222   4818.35
 11.0643   4839.37
 11.1065   4957.82
 11.1486   5039.02
 11.1907   4937.96
 11.2328   4861.75
 11.2749   4750.95
 11.3171   4684.58
 11.3592   4610.6
 11.4013   4564.95
 11.4434   4531.37
 11.4855   4514.3
 11.5277   4481.1
 11.5698   4425.94
 11.6119   4416.46
 11.654   4389.42
 11.6961   4354.97
 11.7383   4355.46
 11.7804   4350.19
 11.8225   4377.01
 11.8646   4444.23
 11.9067   5028.47
 11.9489   4518.23
 11.991   4554.51
 12.0331   4520.09
 12.0752   4474.76
 12.1173   4424.95
 12.1595   4284.34
 12.2016   4179.69
 12.2437   4137.46
 12.2858   4100.17
 12.3279   4102.65
 12.3701   4134.5
 12.4122   4149.53
 12.4543   4171.67
 12.4964   4184.16
 12.5385   4172.31
 12.5807   4184.99
 12.6228   4232.51
 12.6649   4266.4
 12.6977   4240.17

File: MA2b-00004_base.chi
MA2b-00004.tif Azm= 0.00
2-Theta Angle (Degrees)
Intensity
       2500
 1.03978   7727.2
 1.0819   7513.49
 1.12402   7333.44
 1.16614   7237.03
 1.20826   7146.54
 1.25038   7121.17
 1.2925   7098.22
 1.33462   7144.59
 1.37674   7228.03
 1.41886   7355.74
 1.46098   7529.34
 1.5031   7755.87
 1.54522   7759.73
 1.58734   7693.37
 1.62946   7700.06
 1.67158   7713.13
 1.7137   7729.26
 1.75582   7786.77
 1.79794   7855.05
 1.84006   7998.19
 1.88218   8199.91
 1.9243   8390.72
 1.96642   8628.73
 2.00854   8838.99
 2.05066   9106.2
 2.09278   9719.44
 2.1349   18285.3
 2.17702   23762.5
 2.21914   14023
 2.26126   11347.8
 2.30338   10482.1
 2.3455   10629.4
 2.38762   10908.4
 2.42974   11220.7
 2.47186   11547.3
 2.51398   11894.1
 2.5561   12174.3
 2.59822   12472.5
 2.64034   12662.3
 2.68246   12807.7
 2.72458   12896.3
 2.7667   12827.2
 2.80882   12752.3
 2.85094   12633.3
 2.89306   12472.4
 2.93518   12300.7
 2.9773   12106.1
 3.01942   11879.4
 3.06154   11623.4
 3.10366   11396.9
 3.14578   11232.5
 3.1879   11103.9
 3.23002   10908.5
 3.27214   10828
 3.31426   10803.4
 3.35638   10721
 3.3985   10744.4
 3.44062   10793.4
 3.48274   10783.4
 3.52486   10794.9
 3.56698   10918.9
 3.6091   10924.3
 3.65122   10974.6
 3.69334   11291.5
 3.73546   11446.2
 3.77758   11692.8
 3.8197   12893.5
 3.86182   13869.6
 3.90394   18525
 3.94606   75122.9
 3.98818   53659.5
 4.0303   17641.3
 4.07242   12967.6
 4.11454   11498.1
 4.15666   10150.8
 4.19878   9651.71
 4.2409   9186.11
 4.28302   9411.12
 4.32514   9484.28
 4.36726   8839.47
 4.40938   8030.57
 4.4515   7637.87
 4.49362   7447.78
 4.53574   7094.29
 4.57786   6889.68
 4.61998   6745.12
 4.6621   6650.33
 4.70422   6608.13
 4.74634   6955.61
 4.78846   8005.43
 4.83058   9257.64
 4.8727   7526.89
 4.91482   7666.85
 4.95694   8546.69
 4.99906   9219.08
 5.04118   7243.45
 5.0833   6927.4
 5.12542   20800.6
 5.16754   19190
 5.20966   6410.31
 5.25178   6008.19
 5.2939   5896.38
 5.33602   5839.3
 5.37814   5861.82
 5.42026   5893.56
 5.46238   6068.46
 5.5045   6896.1
 5.54662   10582.1
 5.58874   11036.6
 5.63086   8041.24
 5.67298   6635.57
 5.7151   6105.9
 5.75722   6104.53
 5.79934   6034.57
 5.84146   6057.2
 5.88358   6477.84
 5.9257   10423.7
 5.96782   9945.68
 6.00994   7795
 6.05206   6532.47
 6.09418   6002.66
 6.1363   5894.91
 6.17842   5869.2
 6.22054   5857.23
 6.26266   5882.07
 6.30478   5926.88
 6.3469   5941.3
 6.38902   5987.68
 6.43114   6084.79
 6.47326   6197.59
 6.51538   6312.87
 6.5575   6418.24
 6.59962   6593.35
 6.64174   6858.12
 6.68386   7061.08
 6.72598   7243.01
 6.7681   7691.77
 6.81022   8405.51
 6.85234   18164
 6.89446   27680.5
 6.93658   10086
 6.9787   9385.68
 7.02082   8638.73
 7.06294   8115.29
 7.10506   7415.56
 7.14718   7136.96
 7.1893   6940.81
 7.23142   6846.58
 7.27354   6890.63
 7.31566   6821.23
 7.35778   6883.02
 7.3999   6979.34
 7.44202   7146
 7.48414   7285.47
 7.52626   7332.08
 7.56838   7316.91
 7.6105   7083.68
 7.65262   6576.27
 7.69474   6377.43
 7.73686   6328.22
 7.77898   6375.46
 7.8211   6456.41
 7.86322   6477.94
 7.90534   6893.62
 7.94746   26572.4
 7.98958   7218.9
 8.0317   6218.58
 8.07382   6185.55
 8.11594   6369.93
 8.15806   6349.42
 8.20018   6633.73
 8.2423   7354.22
 8.28442   7481.59
 8.32654   6560.87
 8.36866   6002.52
 8.41078   10728.9
 8.4529   6008.06
 8.49502   6205.19
 8.53714   6599.26
 8.57926   6759.31
 8.62138   6309.69
 8.6635   5836.92
 8.70562   5612.09
 8.74774   5498.35
 8.78986   5411.83
 8.83198   5419.31
 8.8741   6640.57
 8.91622   5102.5
 8.95834   5025.81
 9.00046   5020.44
 9.04258   4978.7
 9.0847   4938.68
 9.12682   4977.74
 9.16894   5044.78
 9.21106   5176.82
 9.25318   5378.57
 9.2953   5613.69
 9.33742   5720.69
 9.37954   5552.83
 9.42166   5289.89
 9.46378   5189.2
 9.5059   5222.33
 9.54802   5245.57
 9.59014   5333.78
 9.63226   5363.76
 9.67438   5411.82
 9.7165   6510.52
 9.75862   5211.99
 9.80074   5247.39
 9.84286   8377.81
 9.88498   8384.86
 9.9271   5466.83
 9.96922   5395.32
 10.0113   5357.38
 10.0535   5237.14
 10.0956   5189.99
 10.1377   5209.32
 10.1798   5307.86
 10.2219   5458.33
 10.2641   5638.18
 10.3062   8377.74
 10.3483   5318.81
 10.3904   5234.01
 10.4325   5289.41
 10.4747   5542.59
 10.5168   5907.2
 10.5589   5277.11
 10.601   5161.4
 10.6431   5080.83
 10.6853   5054.63
 10.7274   5089.74
 10.7695   5132.97
 10.8116   5105.65
 10.8537   5052.71
 10.8959   4959.45
 10.938   4876.14
 10.9801   4811.18
 11.0222   4781.68
 11.0643   4811.78
 11.1065   4904.88
 11.1486   4984.34
 11.1907   4919.88
 11.2328   4927.77
 11.2749   4715.64
 11.3171   4657.69
 11.3592   4571.58
 11.4013   4530.65
 11.4434   4506.81
 11.4855   4483.04
 11.5277   4452.73
 11.5698   4409.52
 11.6119   4398.74
 11.654   4382.17
 11.6961   4356.6
 11.7383   4338
 11.7804   4342.19
 11.8225   4362.3
 11.8646   4450.05
 11.9067   5098.78
 11.9489   4553.67
 11.991   4565.61
 12.0331   4518.34
 12.0752   4438.21
 12.1173   4364.87
 12.1595   4255.31
 12.2016   4153.49
 12.2437   4109.05
 12.2858   4089.78
 12.3279   4086.01
 12.3701   4110.15
 12.4122   4130.41
 12.4543   4143.96
 12.4964   4147.77
 12.5385   4122.83
 12.5807   4147.46
 12.6228   4180.24
 12.6649   4215.47
 12.6977   4232.12

File: MA2b-00004_om.chi
MA2b-00004.tif Azm= 0.00
2-Theta Angle (Degrees)
Intensity
       2500
 1.03978   7727.2
 1.0819   7513.49
 1.12402   7344.09
 1.16614   7231.78
 1.20826   7146.54
 1.25038   7121.17
 1.2925   7093.9
 1.33462   7140.52
 1.37674   7213.53
 1.41886   7336.02
 1.46098   7516.72
 1.5031   7747.64
 1.54522   7748.86
 1.58734   7685.18
 1.62946   7684.74
 1.67158   7698.64
 1.7137   7705.46
 1.75582   7782.98
 1.79794   7840.55
 1.84006   7991.74
 1.88218   8195.59
 1.9243   8376.22
 1.96642   8602.92
 2.00854   8833.39
 2.05066   9097.35
 2.09278   9717.09
 2.1349   18285.3
 2.17702   23762.5
 2.21914   14023
 2.26126   11338.1
 2.30338   10482.6
 2.3455   10624.4
 2.38762   10902.7
 2.42974   11215.6
 2.47186   11543
 2.51398   11890.1
 2.5561   12169.3
 2.59822   12463.1
 2.64034   12655.3
 2.68246   12770.5
 2.72458   12838.2
 2.7667   12790.5
 2.80882   12725.5
 2.85094   12600.8
 2.89306   12454.7
 2.93518   12284.6
 2.9773   12080.8
 3.01942   11863.5
 3.06154   11605.6
 3.10366   11383.6
 3.14578   11206.3
 3.1879   11082.8
 3.23002   10890
 3.27214   10806.6
 3.31426   10778.1
 3.35638   10695.1
 3.3985   10697.7
 3.44062   10728.1
 3.48274   10710.4
 3.52486   10697.5
 3.56698   10737.5
 3.6091   10708.4
 3.65122   10616.8
 3.69334   10561
 3.73546   10256.2
 3.77758   9792.5
 3.8197   9578.06
 3.86182   9357.06
 3.90394   9077.94
 3.94606   8781.49
 3.98818   8616.27
 4.0303   8408.58
 4.07242   8192.66
 4.11454   8122.88
 4.15666   7977.88
 4.19878   7818.95
 4.2409   7901.38
 4.28302   8760.65
 4.32514   9003.62
 4.36726   8634.92
 4.40938   7915.39
 4.4515   7610.19
 4.49362   7441.76
 4.53574   7091.58
 4.57786   6885.09
 4.61998   6745.12
 4.6621   6650.33
 4.70422   6608.13
 4.74634   6954.29
 4.78846   8004.32
 4.83058   9251.35
 4.8727   7528.29
 4.91482   7666.85
 4.95694   8543.46
 4.99906   9216.3
 5.04118   7243.45
 5.0833   6879.94
 5.12542   8647.36
 5.16754   8621.13
 5.20966   6279.42
 5.25178   5963.22
 5.2939   5869.29
 5.33602   5819.97
 5.37814   5803.62
 5.42026   5865.54
 5.46238   6055.37
 5.5045   6882.56
 5.54662   10575.8
 5.58874   10946.8
 5.63086   7977.83
 5.67298   6613.38
 5.7151   6094
 5.75722   6066.44
 5.79934   6008.9
 5.84146   6048.5
 5.88358   6463.79
 5.9257   8020.23
 5.96782   8922.21
 6.00994   7782.23
 6.05206   6516.51
 6.09418   6002.66
 6.1363   5893.71
 6.17842   5869.2
 6.22054   5857.23
 6.26266   5879.29
 6.30478   5916.72
 6.3469   5920.18
 6.38902   5943.26
 6.43114   5988.29
 6.47326   5996.4
 6.51538   6051.81
 6.5575   6131.84
 6.59962   6150.19
 6.64174   6268.93
 6.68386   6415.85
 6.72598   6483.28
 6.7681   6601.72
 6.81022   6727.89
 6.85234   6891.67
 6.89446   7363.33
 6.93658   8123.41
 6.9787   8102.9
 7.02082   7856.54
 7.06294   7572.37
 7.10506   6960.58
 7.14718   6737.37
 7.1893   6657.24
 7.23142   6620.1
 7.27354   6665.57
 7.31566   6669.98
 7.35778   6819.71
 7.3999   6959.61
 7.44202   7144.04
 7.48414   7285.47
 7.52626   7332.08
 7.56838   7303.46
 7.6105   7013.54
 7.65262   6420.91
 7.69474   6146.45
 7.73686   6018.07
 7.77898   5893.74
 7.8211   5816.87
 7.86322   5748.68
 7.90534   5653.41
 7.94746   5622.38
 7.98958   5554.81
 8.0317   5509.65
 8.07382   5596.75
 8.11594   5818.56
 8.15806   5897.75
 8.20018   6308.19
 8.2423   7049.77
 8.28442   7244.47
 8.32654   6392.28
 8.36866   5825.54
 8.41078   7096.26
 8.4529   5900.9
 8.49502   6147.32
 8.53714   6543.33
 8.57926   6716.06
 8.62138   6267.19
 8.6635   5784.09
 8.70562   5548.4
 8.74774   5428.2
 8.78986   5326.06
 8.83198   5225.96
 8.8741   5045.77
 8.91622   4986.44
 8.95834   4949.59
 9.00046   4954.73
 9.04258   4925.69
 9.0847   4895
 9.12682   4940.43
 9.16894   5018.36
 9.21106   5160.02
 9.25318   5371.72
 9.2953   5605.28
 9.33742   5713.33
 9.37954   5547.9
 9.42166   5287.57
 9.46378   5184.54
 9.5059   5217.21
 9.54802   5226.35
 9.59014   5309.92
 9.63226   5327.76
 9.67438   5320.51
 9.7165   5219.27
 9.75862   5088.48
 9.80074   5198.54
 9.84286   7499.6
 9.88498   7121
 9.9271   5466.01
 9.96922   5394.24
 10.0113   5356.04
 10.0535   5233.36
 10.0956   5187.38
 10.1377   5208.02
 10.1798   5302.45
 10.2219   5445.01
 10.2641   5627.36
 10.3062   5970.12
 10.3483   5286.94
 10.3904   5153.09
 10.4325   5183.56
 10.4747   5280.18
 10.5168   5290.76
 10.5589   5204.07
 10.601   5092.22
 10.6431   5023.65
 10.6853   5022.07
 10.7274   5069.57
 10.7695   5115.83
 10.8116   5093.89
 10.8537   5046.8
 10.8959   4958.94
 10.938   4876.11
 10.9801   4809.73
 11.0222   4780.19
 11.0643   4812.51
 11.1065   4904.43
 11.1486   4981.29
 11.1907   4917.97
 11.2328   4832.72
 11.2749   4716.15
 11.3171   4653.86
 11.3592   4572.29
 11.4013   4531.46
 11.4434   4505.59
 11.4855   4482.65
 11.5277   4451.42
 11.5698   4409.46
 11.6119   4397.52
 11.654   4382.65
 11.6961   4355.64
 11.7383   4336.66
 11.7804   4338.69
 11.8225   4356.3
 11.8646   4441.69
 11.9067   4669.45
 11.9489   4538.64
 11.991   4555.37
 12.0331   4509.5
 12.0752   4430.58
 12.1173   4361.49
 12.1595   4250.02
 12.2016   4148.05
 12.2437   4103.34
 12.2858   4086.02
 12.3279   4082.8
 12.3701   4106.68
 12.4122   4127.69
 12.4543   4138.83
 12.4964   4144.18
 12.5385   4113.63
 12.5807   4139.17
 12.6228   4176.33
 12.6649   4213.56
 12.6977   4230.42