Folder: XRDdatapipeline/docs/GuiliangJun25_tutorial_output/integrals

Note: README.rst
===========
XRDPipeline
===========

..
        Not currently set up with pypi and others; leaving the template in for later.
        .. image:: https://img.shields.io/pypi/v/xrdpipeline.svg
                :target: https://pypi.python.org/pypi/xrdpipeline

        .. image:: https://img.shields.io/travis/AZjk/xrdpipeline.svg
                :target: https://travis-ci.com/AZjk/xrdpipeline

        .. image:: https://readthedocs.org/projects/xrdpipeline/badge/?version=latest
                :target: https://xrdpipeline.readthedocs.io/en/latest/?version=latest
                :alt: Documentation Status




A package for automated XRD data masking and integration.

..
        * Free software: MIT license
        * Documentation: https://xrdpipeline.readthedocs.io.


Features
--------

* Automated analysis pipeline for incoming or existing XRD data
* Outlier masking and classification into spot or texture sources
* UI to display results live

Installation
------------

This software was designed for Python version 3.10.8. Set up and start a `virtual environment`_ in that version, then run:

.. _`virtual environment`: https://docs.python.org/3/library/venv.html

``git clone https://github.com/AdvancedPhotonSource/XRDdatapipeline.git``

..
        The cookiecutter template applied by Miaoqi should let this be pip-installable, but it needs to be registered with pypi first.
        In the meantime, the URL will need to be updated if/when this repository moves.

To install dependencies, next run:

``python -m pip install -r requirements.txt``

These commands should install this module and all of its prerequisites.

..
        fmask and polymask should work fine for Windows, but need to be recompiled in Linux.
        Need to include extra steps, ie installing and running the compiler
        Add extra linux_requirements.txt to install it, add the makefile for compiling

Instructions: Pipeline
----------------------

To launch the analysis pipeline, ensure your virtual environment is running and run:

``python src/xrdpipeline/pipeline_queue.py``

This will open the pipeline UI.
The input directory is where the analysis pipeline will watch for incoming XRD images and add them to the queue to be processed.

The output directory will hold results such as outlier mask files, integrated powder patterns, and other statistical information.

The configuration file may be either an .imctrl (GSASII) or .poni (PyFAI) calibration file.
If using a .poni file, you must manually enter the integration range, number of integration bins, and polarization to correct for.
If using an .imctrl file, you may optionally overwrite the configuration values.

The flat-field file, experimental mask, and bad pixel masks are optional.
It is recommended to make an experimental mask using the ``mask_widget.py`` file to block out sections such as the beamstop.
The pipeline will automatically mask out dead (zero intensity) pixels, but if there is a known detector mask, place it in the bad 

File: MA2-00001_base.chi
MA2-00001.tif Azm= 0.00
2-Theta Angle (Degrees)
Intensity
       2500
 1.03978   7688.9
 1.0819   7448.85
 1.12402   7317.37
 1.16614   7179.13
 1.20826   7112.51
 1.25038   7049.7
 1.2925   7080.5
 1.33462   7138.3
 1.37674   7168.47
 1.41886   7270.52
 1.46098   7472.97
 1.5031   7665.33
 1.54522   7686.42
 1.58734   7649.16
 1.62946   7611.21
 1.67158   7623.99
 1.7137   7654.53
 1.75582   7686.12
 1.79794   7777.28
 1.84006   7918.15
 1.88218   8121.42
 1.9243   8326.25
 1.96642   8545.12
 2.00854   8721.12
 2.05066   8899.31
 2.09278   9141.27
 2.1349   9390.32
 2.17702   9868.04
 2.21914   12808
 2.26126   26176.3
 2.30338   11352.3
 2.3455   10778.7
 2.38762   10990.6
 2.42974   11255.7
 2.47186   11590.8
 2.51398   11929.1
 2.5561   12252.6
 2.59822   12539.3
 2.64034   12749
 2.68246   12904.1
 2.72458   12975.4
 2.7667   12935.6
 2.80882   12842.4
 2.85094   12700.8
 2.89306   12533.5
 2.93518   12361.6
 2.9773   12167.3
 3.01942   11927.2
 3.06154   11686.3
 3.10366   11420.3
 3.14578   11250.5
 3.1879   11096.7
 3.23002   10934.7
 3.27214   10824.9
 3.31426   10789.8
 3.35638   10674.6
 3.3985   10715.9
 3.44062   10732.2
 3.48274   10726.4
 3.52486   10738.4
 3.56698   10812.7
 3.6091   10812.7
 3.65122   10812.5
 3.69334   11131.4
 3.73546   11281.5
 3.77758   11485.4
 3.8197   12582
 3.86182   13561.6
 3.90394   18032.4
 3.94606   68144
 3.98818   54912.4
 4.0303   17257.9
 4.07242   12661.9
 4.11454   11277.4
 4.15666   9966.2
 4.19878   9437.43
 4.2409   8940.48
 4.28302   8367.08
 4.32514   8041.9
 4.36726   7785.41
 4.40938   7558.24
 4.4515   7522.11
 4.49362   9648.14
 4.53574   8393.33
 4.57786   6936.36
 4.61998   6711.1
 4.6621   6705.22
 4.70422   8495.29
 4.74634   8192.46
 4.78846   6452.04
 4.83058   6405.2
 4.8727   8770.51
 4.91482   11289.3
 4.95694   6426.27
 4.99906   6103.48
 5.04118   6038.63
 5.0833   6512.33
 5.12542   19533.4
 5.16754   19354.9
 5.20966   6294.47
 5.25178   5881.75
 5.2939   5783.39
 5.33602   5718.43
 5.37814   5739.06
 5.42026   5797.57
 5.46238   6084.28
 5.5045   8844.71
 5.54662   29689.6
 5.58874   10720.4
 5.63086   6312.15
 5.67298   5783.42
 5.7151   5655.58
 5.75722   5730.23
 5.79934   5678.39
 5.84146   5613.47
 5.88358   5740.86
 5.9257   8758.79
 5.96782   7720.37
 6.00994   6112.5
 6.05206   5726.32
 6.09418   5666.16
 6.1363   5675.91
 6.17842   5715.94
 6.22054   5728.23
 6.26266   5768.39
 6.30478   5825.15
 6.3469   5844.88
 6.38902   5877.75
 6.43114   5975.1
 6.47326   6060.84
 6.51538   6199.27
 6.5575   6276.83
 6.59962   6471.89
 6.64174   6700.06
 6.68386   6903.11
 6.72598   7070.75
 6.7681   7496.62
 6.81022   7957.1
 6.85234   11663.9
 6.89446   17484.2
 6.93658   8412.88
 6.9787   8244.64
 7.02082   9740.83
 7.06294   8653.68
 7.10506   7216.15
 7.14718   6931.3
 7.1893   6741.63
 7.23142   6655.29
 7.27354   6680.09
 7.31566   6573.26
 7.35778   6545.36
 7.3999   6438.34
 7.44202   6367.53
 7.48414   6379.47
 7.52626   6495.1
 7.56838   7505.62
 7.6105   12261.8
 7.65262   7989.8
 7.69474   6509.44
 7.73686   6317.23
 7.77898   6325.69
 7.8211   6394.44
 7.86322   6462.42
 7.90534   7312.65
 7.94746   26975.7
 7.98958   7261.26
 8.0317   6960.82
 8.07382   11897.6
 8.11594   8070.69
 8.15806   6052.86
 8.20018   5700.59
 8.2423   5602.17
 8.28442   5495.76
 8.32654   5547.25
 8.36866   6756.79
 8.41078   11762
 8.4529   5575.87
 8.49502   5217.21
 8.53714   5133.36
 8.57926   5057.96
 8.62138   5031.08
 8.6635   5022.83
 8.70562   4996.42
 8.74774   5007.49
 8.78986   5139.28
 8.83198   6158.71
 8.8741   7896.26
 8.91622   5135.47
 8.95834   4991.59
 9.00046   5327.29
 9.04258   5553.71
 9.0847   4930.21
 9.12682   4865.81
 9.16894   4901.91
 9.21106   5265.74
 9.25318   7000.86
 9.2953   5683.77
 9.33742   5150.93
 9.37954   5263.65
 9.42166   5297.25
 9.46378   6129.81
 9.5059   6007.83
 9.54802   5145.93
 9.59014   4927.3
 9.63226   4918.24
 9.67438   5014.4
 9.7165   6463.13
 9.75862   5480.24
 9.80074   7378.57
 9.84286   8790.58
 9.88498   8336.6
 9.9271   5123.85
 9.96922   5043.5
 10.0113   5038.4
 10.0535   5136.84
 10.0956   5085.28
 10.1377   5008.86
 10.1798   5012.38
 10.2219   5024.97
 10.2641   5234.67
 10.3062   8197.68
 10.3483   5188.56
 10.3904   5080.51
 10.4325   5056.46
 10.4747   5358.51
 10.5168   5555.83
 10.5589   5129.4
 10.601   4992.29
 10.6431   4945.23
 10.6853   5065.96
 10.7274   5341.39
 10.7695   4946.76
 10.8116   4830.24
 10.8537   4801.68
 10.8959   4745.9
 10.938   4703.48
 10.9801   4688.43
 11.0222   4713.4
 11.0643   4894.09
 11.1065   5737.39
 11.1486   5129.88
 11.1907   4657.96
 11.2328   4778.52
 11.2749   4655.13
 11.3171   4585.64
 11.3592   4472.25
 11.4013   4461.36
 11.4434   4463.37
 11.4855   4622.51
 11.5277   5064.1
 11.5698   4603.17
 11.6119   4397.56
 11.654   4341.27
 11.6961   4298.46
 11.7383   4279.76
 11.7804   4255.1
 11.8225   4248.19
 11.8646   4286.43
 11.9067   4871.55
 11.9489   4349.45
 11.991   4606.42
 12.0331   4428.84
 12.0752   4450.18
 12.1173   5198.73
 12.1595   4816.65
 12.2016   4222.32
 12.2437   4091.01
 12.2858   4054.17
 12.3279   4064.04
 12.3701   4287.09
 12.4122   4385.04
 12.4543   4698.12
 12.4964   4412.74
 12.5385   4064.29
 12.5807   3965.41
 12.6228   3958.36
 12.6649   4134.71
 12.6977   4750.38

File: MA2-00001_om.chi
MA2-00001.tif Azm= 0.00
2-Theta Angle (Degrees)
Intensity
       2500
 1.03978   7695.27
 1.0819   7448.85
 1.12402   7311.92
 1.16614   7174.2
 1.20826   7117.45
 1.25038   7053.82
 1.2925   7080.5
 1.33462   7101.17
 1.37674   7168.19
 1.41886   7262.2
 1.46098   7466.92
 1.5031   7661.82
 1.54522   7683.23
 1.58734   7649.16
 1.62946   7607.06
 1.67158   7614.19
 1.7137   7649.87
 1.75582   7686.12
 1.79794   7779.5
 1.84006   7914.05
 1.88218   8117.98
 1.9243   8326.25
 1.96642   8533.37
 2.00854   8718.63
 2.05066   8895.02
 2.09278   9139.51
 2.1349   9388.09
 2.17702   9861.57
 2.21914   12808
 2.26126   26176.3
 2.30338   11352.3
 2.3455   10770.4
 2.38762   10987.9
 2.42974   11251.3
 2.47186   11584
 2.51398   11926.1
 2.5561   12248.9
 2.59822   12531.7
 2.64034   12744.6
 2.68246   12866.1
 2.72458   12947.9
 2.7667   12909.5
 2.80882   12822.1
 2.85094   12679.9
 2.89306   12512.4
 2.93518   12345.7
 2.9773   12148.5
 3.01942   11913.9
 3.06154   11669.6
 3.10366   11402.8
 3.14578   11232.3
 3.1879   11080.8
 3.23002   10911.7
 3.27214   10810.9
 3.31426   10774.3
 3.35638   10660
 3.3985   10690.1
 3.44062   10701.9
 3.48274   10682.9
 3.52486   10686.8
 3.56698   10701.7
 3.6091   10677.7
 3.65122   10548
 3.69334   10479
 3.73546   10148.2
 3.77758   9754.96
 3.8197   9474.18
 3.86182   9323.29
 3.90394   8998.27
 3.94606   8695.39
 3.98818   8519.24
 4.0303   8354.16
 4.07242   8141.47
 4.11454   8055.09
 4.15666   7873.6
 4.19878   7702.13
 4.2409   7705.44
 4.28302   7692.6
 4.32514   7601.44
 4.36726   7613.87
 4.40938   7526.75
 4.4515   7522.11
 4.49362   9645.82
 4.53574   8393.33
 4.57786   6936.36
 4.61998   6711.1
 4.6621   6703.08
 4.70422   8495.29
 4.74634   8192.46
 4.78846   6450.58
 4.83058   6405.2
 4.8727   8766.82
 4.91482   11289.3
 4.95694   6423.58
 4.99906   6102.09
 5.04118   6033.18
 5.0833   6440.98
 5.12542   8310.58
 5.16754   8576.27
 5.20966   6164.38
 5.25178   5845.79
 5.2939   5761.61
 5.33602   5700.09
 5.37814   5688.37
 5.42026   5769.15
 5.46238   6070.07
 5.5045   8837.12
 5.54662   29689.6
 5.58874   10494.6
 5.63086   6203.69
 5.67298   5758.31
 5.7151   5644.18
 5.75722   5695.64
 5.79934   5654.04
 5.84146   5605.1
 5.88358   5720.02
 5.9257   6530.29
 5.96782   6668.74
 6.00994   6100.11
 6.05206   5711.98
 6.09418   5664.87
 6.1363   5674.2
 6.17842   5714.33
 6.22054   5728.23
 6.26266   5767.21
 6.30478   5814.3
 6.3469   5824.76
 6.38902   5844.7
 6.43114   5900.8
 6.47326   5913.91
 6.51538   5977.79
 6.5575   6024.19
 6.59962   6053.31
 6.64174   6143.07
 6.68386   6309.33
 6.72598   6395.12
 6.7681   6486.91
 6.81022   6515.14
 6.85234   6567.54
 6.89446   6610.9
 6.93658   6822.28
 6.9787   7108.1
 7.02082   9044.18
 7.06294   8144.18
 7.10506   6802.59
 7.14718   6563.07
 7.1893   6476.14
 7.23142   6438.71
 7.27354   6467.13
 7.31566   6429.19
 7.35778   6485.27
 7.3999   6425.34
 7.44202   6363.73
 7.48414   6373.92
 7.52626   6483.71
 7.56838   7471.82
 7.6105   12220.9
 7.65262   7904.84
 7.69474   6255.09
 7.73686   5980.88
 7.77898   5801.95
 7.8211   5734.38
 7.86322   5676.23
 7.90534   5585.14
 7.94746   5573.91
 7.98958   5606.84
 8.0317   6251.19
 8.07382   11388.5
 8.11594   7601.87
 8.15806   5595.98
 8.20018   5334.61
 8.2423   5293.93
 8.28442   5212.73
 8.32654   5360.53
 8.36866   6584.86
 8.41078   8141.68
 8.4529   5451.67
 8.49502   5147.62
 8.53714   5071.6
 8.57926   5000.98
 8.62138   4985.23
 8.6635   4962.23
 8.70562   4926.24
 8.74774   4935.09
 8.78986   5054.19
 8.83198   5990.05
 8.8741   6005.21
 8.91622   5017.58
 8.95834   4915.83
 9.00046   5268.51
 9.04258   5506.67
 9.0847   4892
 9.12682   4830.83
 9.16894   4881.13
 9.21106   5257.62
 9.25318   6992.06
 9.2953   5683.27
 9.33742   5148.27
 9.37954   5262.82
 9.42166   5294.73
 9.46378   6127.67
 9.5059   5998.08
 9.54802   5129.9
 9.59014   4905.78
 9.63226   4882.53
 9.67438   4906.2
 9.7165   4960.75
 9.75862   5374.49
 9.80074   7344.93
 9.84286   8382.68
 9.88498   6941.94
 9.9271   5123.85
 9.96922   5041.54
 10.0113   5037.03
 10.0535   5134.99
 10.0956   5082.64
 10.1377   5006.98
 10.1798   5003.32
 10.2219   5015.73
 10.2641   5217.33
 10.3062   5787.72
 10.3483   5159.73
 10.3904   5002.3
 10.4325   4981.77
 10.4747   4978.75
 10.5168   5024.05
 10.5589   5070.53
 10.601   4932.18
 10.6431   4900.73
 10.6853   5034.58
 10.7274   5319.77
 10.7695   4930.09
 10.8116   4824.36
 10.8537   4798.2
 10.8959   4742.39
 10.938   4701.96
 10.9801   4686.75
 11.0222   4712.57
 11.0643   4893.12
 11.1065   5734.83
 11.1486   5129.12
 11.1907   4656.9
 11.2328   4619.6
 11.2749   4654.36
 11.3171   4583.6
 11.3592   4472.26
 11.4013   4462.01
 11.4434   4463.94
 11.4855   4621.77
 11.5277   5063.41
 11.5698   4602.21
 11.6119   4397.19
 11.654   4340.06
 11.6961   4297.53
 11.7383   4272.17
 11.7804   4251.85
 11.8225   4244.24
 11.8646   4277.77
 11.9067   4461.94
 11.9489   4339.1
 11.991   4599.16
 12.0331   4423.24
 12.0752   4448.25
 12.1173   5191.16
 12.1595   4815.43
 12.2016   4218.34
 12.2437   4088.71
 12.2858   4052
 12.3279   4062.44
 12.3701   4284.85
 12.4122   4382.83
 12.4543   4694.49
 12.4964   4412.66
 12.5385   4059.91
 12.5807   3964.37
 12.6228   3956.09
 12.6649   4131.8
 12.6977   4746.97

File: MA2-00001_spotsmasked.chi
MA2-00001.tif Azm= 0.00
2-Theta Angle (Degrees)
Intensity
       2500
 1.03978   7688.9
 1.0819   7448.85
 1.12402   7317.37
 1.16614   7179.13
 1.20826   7112.51
 1.25038   7049.7
 1.2925   7080.5
 1.33462   7096.9
 1.37674   7163.98
 1.41886   7262.2
 1.46098   7466.92
 1.5031   7661.82
 1.54522   7682.99
 1.58734   7649.16
 1.62946   7607.06
 1.67158   7616.8
 1.7137   7649.87
 1.75582   7686.12
 1.79794   7775.01
 1.84006   7911.7
 1.88218   8115.61
 1.9243   8326.25
 1.96642   8531.25
 2.00854   8721.12
 2.05066   8897.23
 2.09278   9137.44
 2.1349   9386.03
 2.17702   9863.71
 2.21914   12808
 2.26126   26176.3
 2.30338   11352.3
 2.3455   10775
 2.38762   10987.9
 2.42974   11253
 2.47186   11584
 2.51398   11924.2
 2.5561   12250.6
 2.59822   12534.5
 2.64034   12746.1
 2.68246   12869.8
 2.72458   12947.9
 2.7667   12909.5
 2.80882   12822.2
 2.85094   12679.9
 2.89306   12514.5
 2.93518   12345.7
 2.9773   12147
 3.01942   11912.2
 3.06154   11668.2
 3.10366   11404.4
 3.14578   11232.3
 3.1879   11082.3
 3.23002   10913.6
 3.27214   10809.2
 3.31426   10772.6
 3.35638   10660
 3.3985   10690.1
 3.44062   10701.8
 3.48274   10682.9
 3.52486   10686.8
 3.56698   10705.4
 3.6091   10677.7
 3.65122   10548
 3.69334   10479
 3.73546   10148.2
 3.77758   9754.96
 3.8197   9474.18
 3.86182   9323.29
 3.90394   8998.27
 3.94606   8695.39
 3.98818   8519.24
 4.0303   8361
 4.07242   8141.47
 4.11454   8055.09
 4.15666   7873.6
 4.19878   7702.13
 4.2409   7705.44
 4.28302   7692.6
 4.32514   7606.13
 4.36726   7613.87
 4.40938   7526.75
 4.4515   7522.11
 4.49362   9645.82
 4.53574   8393.33
 4.57786   6936.36
 4.61998   6711.1
 4.6621   6703.08
 4.70422   8495.29
 4.74634   8192.46
 4.78846   6450.58
 4.83058   6405.2
 4.8727   8768.46
 4.91482   11289.3
 4.95694   6426.27
 4.99906   6102.09
 5.04118   6033.09
 5.0833   6512.33
 5.12542   19555.7
 5.16754   19354.9
 5.20966   6293.1
 5.25178   5846.5
 5.2939   5761.61
 5.33602   5700.09
 5.37814   5688.37
 5.42026   5770.96
 5.46238   6070.07
 5.5045   8837.91
 5.54662   29689.6
 5.58874   10494.6
 5.63086   6206.17
 5.67298   5758.31
 5.7151   5645.05
 5.75722   5696.74
 5.79934   5655.23
 5.84146   5606.11
 5.88358   5720.47
 5.9257   8753.62
 5.96782   7720.37
 6.00994   6101.86
 6.05206   5713.18
 6.09418   5664.87
 6.1363   5675.4
 6.17842   5714.33
 6.22054   5728.23
 6.26266   5767.21
 6.30478   5814.3
 6.3469   5829.47
 6.38902   5846.44
 6.43114   5902.57
 6.47326   5913.91
 6.51538   5977.79
 6.5575   6026.72
 6.59962   6053.31
 6.64174   6143.07
 6.68386   6309.33
 6.72598   6395.12
 6.7681   6486.91
 6.81022   6515.14
 6.85234   6567.54
 6.89446   6610.9
 6.93658   6822.28
 6.9787   7108.1
 7.02082   9044.18
 7.06294   8153.03
 7.10506   6802.59
 7.14718   6563.07
 7.1893   6476.14
 7.23142   6438.71
 7.27354   6470.02
 7.31566   6431.6
 7.35778   6486.5
 7.3999   6425.34
 7.44202   6363.73
 7.48414   6373.92
 7.52626   6483.71
 7.56838   7476.06
 7.6105   12220.9
 7.65262   7904.84
 7.69474   6256.5
 7.73686   5982.33
 7.77898   5801.95
 7.8211   5735.87
 7.86322   5677.73
 7.90534   5586.83
 7.94746   5573.91
 7.98958   5606.84
 8.0317   6251.19
 8.07382   11388.5
 8.11594   7601.87
 8.15806   5595.98
 8.20018   5337.31
 8.2423   5293.93
 8.28442   5214.05
 8.32654   5360.53
 8.36866   6584.86
 8.41078   9571.96
 8.4529   5452.7
 8.49502   5147.62
 8.53714   5073.53
 8.57926   5003.44
 8.62138   4985.76
 8.6635   4964.57
 8.70562   4929.6
 8.74774   4935.86
 8.78986   5055.72
 8.83198   5990.05
 8.8741   6009.53
 8.91622   5017.58
 8.95834   4917.23
 9.00046   5269.45
 9.04258   5507.43
 9.0847   4892.56
 9.12682   4831.36
 9.16894   4881.13
 9.21106   5257.62
 9.25318   6994.04
 9.2953   5683.27
 9.33742   5148.79
 9.37954   5262.3
 9.42166   5295.69
 9.46378   6128.78
 9.5059   6000.44
 9.54802   5130.53
 9.59014   4906.26
 9.63226   4885.5
 9.67438   4915.54
 9.7165   4989.03
 9.75862   5381.94
 9.80074   7344.93
 9.84286   8645.94
 9.88498   8041.68
 9.9271   5123.85
 9.96922   5042.83
 10.0113   5038.4
 10.0535   5136.34
 10.0956   5085.28
 10.1377   5007.64
 10.1798   5006.48
 10.2219   5017.67
 10.2641   5234.67
 10.3062   8197.68
 10.3483   5162.11
 10.3904   5003.04
 10.4325   4981.77
 10.4747   4978.75
 10.5168   5025.99
 10.5589   5070.53
 10.601   4932.9
 10.6431   4900.73
 10.6853   5035.79
 10.7274   5322.87
 10.7695   4933.23
 10.8116   4824.36
 10.8537   4798.82
 10.8959   4744.38
 10.938   4702.93
 10.9801   4687.76
 11.0222   4713.4
 11.0643   4894.09
 11.1065   5735.77
 11.1486   5129.51
 11.1907   4657.25
 11.2328   4621.67
 11.2749   4654
 11.3171   4584.3
 11.3592   4471.12
 11.4013   4461.21
 11.4434   4462.74
 11.4855   4622.12
 11.5277   5063.5
 11.5698   4602.7
 11.6119   4397.23
 11.654   4340.79
 11.6961   4297.05
 11.7383   4272.97
 11.7804   4251.77
 11.8225   4245.07
 11.8646   4279.44
 11.9067   4833.53
 11.9489   4339.56
 11.991   4600.39
 12.0331   4423.65
 12.0752   4447.52
 12.1173   5192.59
 12.1595   4815.83
 12.2016   4220.12
 12.2437   4088.34
 12.2858   4052.79
 12.3279   4062.1
 12.3701   4285.8
 12.4122   4382.85
 12.4543   4696.53
 12.4964   4411.74
 12.5385   4060.78
 12.5807   3963.15
 12.6228   3957.6
 12.6649   4133.17
 12.6977   4750.01

File: MA2-00002_arcsmasked.chi
MA2-00002.tif Azm= 0.00
2-Theta Angle (Degrees)
Intensity
       2500
 1.03978   7738.89
 1.0819   7531.69
 1.12402   7386.23
 1.16614   7265.38
 1.20826   7182.74
 1.25038   7154.46
 1.2925   7144.44
 1.33462   7214.59
 1.37674   7236.37
 1.41886   7345.07
 1.46098   7526.28
 1.5031   7734.06
 1.54522   7749.84
 1.58734   7694.16
 1.62946   7680.74
 1.67158   7694.94
 1.7137   7739.9
 1.75582   7784.96
 1.79794   7869.67
 1.84006   8015.37
 1.88218   8185.18
 1.9243   8396.3
 1.96642   8585.86
 2.00854   8794.89
 2.05066   8985.1
 2.09278   9222.92
 2.1349   9486.66
 2.17702   9970.09
 2.21914   13604.6
 2.26126   25625.1
 2.30338   11384
 2.3455   10852.8
 2.38762   11070.4
 2.42974   11337.9
 2.47186   11692.5
 2.51398   12022.4
 2.5561   12349.7
 2.59822   12658.3
 2.64034   12822
 2.68246   12991.8
 2.72458   13077.6
 2.7667   13039.1
 2.80882   12928.4
 2.85094   12804.4
 2.89306   12657
 2.93518   12462.5
 2.9773   12270.3
 3.01942   12025.4
 3.06154   11762.7
 3.10366   11515.6
 3.14578   11351.3
 3.1879   11206.5
 3.23002   11026.2
 3.27214   10930.7
 3.31426   10881.9
 3.35638   10776.1
 3.3985   10785.7
 3.44062   10849.1
 3.48274   10848.6
 3.52486   10808.7
 3.56698   10904.8
 3.6091   10882.6
 3.65122   10941.2
 3.69334   11263.6
 3.73546   11391.9
 3.77758   11627.3
 3.8197   12763.5
 3.86182   13736.5
 3.90394   18965.8
 3.94606   67141.6
 3.98818   54062.3
 4.0303   17345
 4.07242   12828.2
 4.11454   11384.8
 4.15666   10070.8
 4.19878   9541.53
 4.2409   9030.63
 4.28302   8442.56
 4.32514   8119.94
 4.36726   7850.09
 4.40938   7617.84
 4.4515   7645.87
 4.49362   9999.57
 4.53574   8230.25
 4.57786   6972.11
 4.61998   6764.05
 4.6621   6735.7
 4.70422   8242.06
 4.74634   8736.37
 4.78846   6562.69
 4.83058   6472.14
 4.8727   8382.73
 4.91482   11829.6
 4.95694   6584.09
 4.99906   6149.18
 5.04118   6089.56
 5.0833   6509.62
 5.12542   8511.69
 5.16754   8646.77
 5.20966   6229.06
 5.25178   5926.17
 5.2939   5826.48
 5.33602   5766
 5.37814   5794.36
 5.42026   5829.4
 5.46238   6105.89
 5.5045   8624.74
 5.54662   29010.8
 5.58874   11461.5
 5.63086   6444.46
 5.67298   5856.48
 5.7151   5717.68
 5.75722   5785.48
 5.79934   5723.03
 5.84146   5656.91
 5.88358   5777.73
 5.9257   6638.16
 5.96782   6739.67
 6.00994   6185.35
 6.05206   5772.36
 6.09418   5709.86
 6.1363   5722.4
 6.17842   5765.61
 6.22054   5755.07
 6.26266   5806.09
 6.30478   5863.64
 6.3469   5889.82
 6.38902   5940.48
 6.43114   6031.75
 6.47326   6119.83
 6.51538   6239.34
 6.5575   6343.46
 6.59962   6504.89
 6.64174   6746.3
 6.68386   6968.74
 6.72598   7135.67
 6.7681   7561.63
 6.81022   8042.79
 6.85234   11911.2
 6.89446   19259
 6.93658   8517.4
 6.9787   8331.27
 7.02082   9893.53
 7.06294   8713.47
 7.10506   7272.45
 7.14718   6989.21
 7.1893   6800.26
 7.23142   6697.55
 7.27354   6721.54
 7.31566   6622.15
 7.35778   6582.72
 7.3999   6480.54
 7.44202   6413.77
 7.48414   6410.98
 7.52626   6557.15
 7.56838   7665.55
 7.6105   12217.6
 7.65262   7907.83
 7.69474   6537.28
 7.73686   6331.09
 7.77898   6345.33
 7.8211   6399.13
 7.86322   6418.98
 7.90534   6826.11
 7.94746   22935.2
 7.98958   6893.03
 8.0317   6770.65
 8.07382   10965.5
 8.11594   8933.81
 8.15806   6226.42
 8.20018   5759.54
 8.2423   5642.64
 8.28442   5542.95
 8.32654   5571.7
 8.36866   6582.88
 8.41078   11037.8
 8.4529   5733.06
 8.49502   5278.49
 8.53714   5169.35
 8.57926   5099.36
 8.62138   5077.7
 8.6635   5058.91
 8.70562   5051.3
 8.74774   5047.49
 8.78986   5212.8
 8.83198   6318.37
 8.8741   8098.06
 8.91622   5175.61
 8.95834   5075.26
 9.00046   5475.58
 9.04258   5455.4
 9.0847   4945.44
 9.12682   4897.19
 9.16894   4928.82
 9.21106   5241.26
 9.25318   6877.3
 9.2953   5883.08
 9.33742   5171.53
 9.37954   5332.32
 9.42166   5310.61
 9.46378   6218.91
 9.5059   6083.19
 9.54802   5178.14
 9.59014   4978.88
 9.63226   4971.34
 9.67438   5049.19
 9.7165   6521.29
 9.75862   5426.54
 9.80074   7097.59
 9.84286   8812.11
 9.88498   7729.21
 9.9271   5181.02
 9.96922   5080.66
 10.0113   5083.66
 10.0535   5162.43
 10.0956   5159.98
 10.1377   5050.98
 10.1798   5058.72
 10.2219   5062.86
 10.2641   5264.93
 10.3062   5843.84
 10.3483   5231.13
 10.3904   5120.34
 10.4325   5092.53
 10.4747   5457.63
 10.5168   5592.57
 10.5589   5184.81
 10.601   5039.91
 10.6431   4976.02
 10.6853   5076.61
 10.7274   5393.59
 10.7695   5027.66
 10.8116   4891.43
 10.8537   4833.22
 10.8959   4781.5
 10.938   4738.22
 10.9801   4727.6
 11.0222   4737.59
 11.0643   4909.31
 11.1065   5697.05
 11.1486   5235.4
 11.1907   4727.37
 11.2328   4839.57
 11.2749   4682.98
 11.3171   4595.9
 11.3592   4508.49
 11.4013   4503.97
 11.4434   4519.31
 11.4855   4728.75
 11.5277   5048.75
 11.5698   4605.39
 11.6119   4440.58
 11.654   4376.94
 11.6961   4331.64
 11.7383   4307.39
 11.7804   4290.72
 11.8225   4282.74
 11.8646   4317.56
 11.9067   4537.88
 11.9489   4385.89
 11.991   4621.6
 12.0331   4477.44
 12.0752   4505.84
 12.1173   5231.57
 12.1595   4820.9
 12.2016   4248.48
 12.2437   4122.16
 12.2858   4084.25
 12.3279   4087.25
 12.3701   4272.03
 12.4122   4406.23
 12.4543   4689
 12.4964   4538.64
 12.5385   4137.16
 12.5807   4006.68
 12.6228   3979.28
 12.6649   4107.8
 12.6977   4596.7