Folder: XRDdatapipeline/docs/GuiliangJun25_tutorial_output/integrals (part 7)

File: MA2b-00006_base.chi
MA2b-00006.tif Azm= 0.00
2-Theta Angle (Degrees)
Intensity
       2500
 1.03978   7735.69
 1.0819   7538.94
 1.12402   7361.41
 1.16614   7196.42
 1.20826   7143.75
 1.25038   7105.16
 1.2925   7079.11
 1.33462   7171.43
 1.37674   7230.09
 1.41886   7352.05
 1.46098   7530.14
 1.5031   7731.8
 1.54522   7744.29
 1.58734   7699.11
 1.62946   7693.18
 1.67158   7715.06
 1.7137   7756.59
 1.75582   7777.06
 1.79794   7876.52
 1.84006   8012.09
 1.88218   8208.88
 1.9243   8395.87
 1.96642   8639.91
 2.00854   8844.38
 2.05066   9142.41
 2.09278   10000.9
 2.1349   23491.9
 2.17702   21821.4
 2.21914   12486
 2.26126   10899.3
 2.30338   10453.5
 2.3455   10632.4
 2.38762   10934.9
 2.42974   11245.1
 2.47186   11562.6
 2.51398   11888.7
 2.5561   12217.8
 2.59822   12473.2
 2.64034   12679.8
 2.68246   12797.8
 2.72458   12950.9
 2.7667   12870.5
 2.80882   12764.5
 2.85094   12669.7
 2.89306   12504
 2.93518   12322.2
 2.9773   12142.4
 3.01942   11897.6
 3.06154   11645.8
 3.10366   11413.6
 3.14578   11271.9
 3.1879   11129
 3.23002   10943.7
 3.27214   10866.1
 3.31426   10854.7
 3.35638   10776.5
 3.3985   10800
 3.44062   10828.1
 3.48274   10879.6
 3.52486   10882.7
 3.56698   11002.6
 3.6091   11011
 3.65122   11074.2
 3.69334   11434.6
 3.73546   11593.7
 3.77758   11857.8
 3.8197   13256.5
 3.86182   14242.5
 3.90394   19526.5
 3.94606   79461.1
 3.98818   59682.2
 4.0303   19463.3
 4.07242   13447
 4.11454   11761.3
 4.15666   10338.8
 4.19878   9809.91
 4.2409   9373.95
 4.28302   10163.2
 4.32514   9634.63
 4.36726   8548.33
 4.40938   7904.56
 4.4515   7562.64
 4.49362   7404.36
 4.53574   7108.29
 4.57786   6937
 4.61998   6762.58
 4.6621   6674.72
 4.70422   6612.03
 4.74634   6803.82
 4.78846   7459.6
 4.83058   9371.7
 4.8727   7963.36
 4.91482   7422.65
 4.95694   8568.61
 4.99906   10409
 5.04118   7804.95
 5.0833   7071.25
 5.12542   20984.6
 5.16754   19269.6
 5.20966   6466.6
 5.25178   6025.5
 5.2939   5916.16
 5.33602   5849.96
 5.37814   5865.18
 5.42026   5858.19
 5.46238   5950.68
 5.5045   6415.46
 5.54662   8527.44
 5.58874   9175.57
 5.63086   7286.94
 5.67298   6388.24
 5.7151   6062.28
 5.75722   6139.01
 5.79934   6110.48
 5.84146   6176.22
 5.88358   6739.17
 5.9257   11162.7
 5.96782   11432.3
 6.00994   8814.95
 6.05206   6851.4
 6.09418   6126.15
 6.1363   5956.83
 6.17842   5909.9
 6.22054   5883.55
 6.26266   5894.33
 6.30478   5939.05
 6.3469   5958.28
 6.38902   6013.99
 6.43114   6117.26
 6.47326   6215.09
 6.51538   6321.81
 6.5575   6404.56
 6.59962   6582.43
 6.64174   6833.98
 6.68386   7048.13
 6.72598   7220.18
 6.7681   7658.49
 6.81022   8241.95
 6.85234   15126.5
 6.89446   22125
 6.93658   10085.4
 6.9787   9336.94
 7.02082   8388.08
 7.06294   7981.13
 7.10506   7371.49
 7.14718   7130.04
 7.1893   6934.69
 7.23142   6857.36
 7.27354   6897
 7.31566   6819.9
 7.35778   6891.43
 7.3999   7003.7
 7.44202   7316.59
 7.48414   7418.88
 7.52626   7159.7
 7.56838   6961.79
 7.6105   6784.65
 7.65262   6483.32
 7.69474   6353.8
 7.73686   6314.53
 7.77898   6358.51
 7.8211   6444.04
 7.86322   6469.02
 7.90534   6886.13
 7.94746   24995.6
 7.98958   7032.53
 8.0317   6209.68
 8.07382   6145.85
 8.11594   6231.18
 8.15806   6163.14
 8.20018   6282.18
 8.2423   6947.22
 8.28442   7792.2
 8.32654   7155.95
 8.36866   6161.24
 8.41078   10706.4
 8.4529   5879.48
 8.49502   6013.24
 8.53714   6658.5
 8.57926   7303.87
 8.62138   6793.24
 8.6635   6005.76
 8.70562   5591.4
 8.74774   5384.03
 8.78986   5298.7
 8.83198   5316.84
 8.8741   6629.4
 8.91622   5094.53
 8.95834   5031.97
 9.00046   5018.34
 9.04258   4979.13
 9.0847   4958.71
 9.12682   4986.47
 9.16894   5082.35
 9.21106   5210
 9.25318   5327.39
 9.2953   5532.56
 9.33742   5690.9
 9.37954   5559.46
 9.42166   5237.21
 9.46378   5117.82
 9.5059   5124.14
 9.54802   5169.93
 9.59014   5296.54
 9.63226   5408.44
 9.67438   5518.47
 9.7165   6790.78
 9.75862   5259.97
 9.80074   5232.59
 9.84286   8310.26
 9.88498   8265.29
 9.9271   5351.6
 9.96922   5326.53
 10.0113   5329.76
 10.0535   5231.39
 10.0956   5191.81
 10.1377   5220.58
 10.1798   5354.27
 10.2219   5618.98
 10.2641   5822.94
 10.3062   8468.15
 10.3483   5358.23
 10.3904   5285.68
 10.4325   5352.65
 10.4747   5691.8
 10.5168   6493.35
 10.5589   5323.95
 10.601   5188.14
 10.6431   5090.09
 10.6853   5053.24
 10.7274   5113.85
 10.7695   5164.13
 10.8116   5124.62
 10.8537   5065.08
 10.8959   4953.49
 10.938   4870.08
 10.9801   4796.87
 11.0222   4787.18
 11.0643   4798.16
 11.1065   4867.93
 11.1486   4947.84
 11.1907   4922.88
 11.2328   4902.6
 11.2749   4688.63
 11.3171   4607.25
 11.3592   4544.96
 11.4013   4518.93
 11.4434   4477.29
 11.4855   4462.39
 11.5277   4448.94
 11.5698   4414.41
 11.6119   4403.27
 11.654   4387.81
 11.6961   4363.32
 11.7383   4328.96
 11.7804   4343.38
 11.8225   4374.65
 11.8646   4453.06
 11.9067   5132.58
 11.9489   4627.61
 11.991   4623.78
 12.0331   4509.76
 12.0752   4396.86
 12.1173   4314.81
 12.1595   4212.83
 12.2016   4141.56
 12.2437   4104.53
 12.2858   4091.19
 12.3279   4080.91
 12.3701   4119.31
 12.4122   4136.03
 12.4543   4143.25
 12.4964   4111.01
 12.5385   4092.52
 12.5807   4069.73
 12.6228   4101.79
 12.6649   4160.12
 12.6977   4229.96

File: MA2b-00006_om.chi
MA2b-00006.tif Azm= 0.00
2-Theta Angle (Degrees)
Intensity
       2500
 1.03978   7742.29
 1.0819   7538.94
 1.12402   7361.41
 1.16614   7196.42
 1.20826   7143.75
 1.25038   7105.16
 1.2925   7079.11
 1.33462   7159.34
 1.37674   7210.6
 1.41886   7338.96
 1.46098   7513.12
 1.5031   7715.49
 1.54522   7732.96
 1.58734   7684.51
 1.62946   7681.9
 1.67158   7695.62
 1.7137   7736.66
 1.75582   7776.45
 1.79794   7865.33
 1.84006   8008.09
 1.88218   8203.92
 1.9243   8381.28
 1.96642   8622.16
 2.00854   8834.92
 2.05066   9136.6
 2.09278   9994.84
 2.1349   23783.1
 2.17702   21821.4
 2.21914   12480.1
 2.26126   10887.2
 2.30338   10448.1
 2.3455   10619.2
 2.38762   10930.7
 2.42974   11236.9
 2.47186   11555.8
 2.51398   11884.5
 2.5561   12214.5
 2.59822   12465.9
 2.64034   12666.9
 2.68246   12757.1
 2.72458   12871.5
 2.7667   12816.1
 2.80882   12722
 2.85094   12615.1
 2.89306   12471.4
 2.93518   12291.1
 2.9773   12106.1
 3.01942   11881.6
 3.06154   11623.1
 3.10366   11396.3
 3.14578   11237.6
 3.1879   11098.6
 3.23002   10918.1
 3.27214   10839.3
 3.31426   10803.9
 3.35638   10729.4
 3.3985   10729.4
 3.44062   10733.5
 3.48274   10762.8
 3.52486   10745.1
 3.56698   10752.7
 3.6091   10714.3
 3.65122   10649.9
 3.69334   10588
 3.73546   10220.1
 3.77758   9847.71
 3.8197   9611.71
 3.86182   9366.43
 3.90394   9062.5
 3.94606   8813.67
 3.98818   8574.68
 4.0303   8442.57
 4.07242   8246.34
 4.11454   8141.81
 4.15666   7992.89
 4.19878   7839.1
 4.2409   7994.91
 4.28302   9440.89
 4.32514   9115.29
 4.36726   8237.09
 4.40938   7746.29
 4.4515   7509.85
 4.49362   7390.65
 4.53574   7102.07
 4.57786   6931.48
 4.61998   6762.58
 4.6621   6674.72
 4.70422   6612.03
 4.74634   6800.41
 4.78846   7458.28
 4.83058   9368.1
 4.8727   7962.09
 4.91482   7419.87
 4.95694   8566.23
 4.99906   10403.6
 5.04118   7804.95
 5.0833   7038.71
 5.12542   8721.38
 5.16754   8697.44
 5.20966   6344.58
 5.25178   5977.54
 5.2939   5886.29
 5.33602   5829.91
 5.37814   5806.07
 5.42026   5827.59
 5.46238   5930.92
 5.5045   6374.5
 5.54662   8507.02
 5.58874   9082.67
 5.63086   7222.15
 5.67298   6363.38
 5.7151   6048.02
 5.75722   6098.17
 5.79934   6084.16
 5.84146   6168.59
 5.88358   6734.15
 5.9257   8761.45
 5.96782   10428.1
 6.00994   8814.95
 6.05206   6840.19
 6.09418   6123.01
 6.1363   5955.6
 6.17842   5909.9
 6.22054   5882.01
 6.26266   5894.33
 6.30478   5930.93
 6.3469   5942.06
 6.38902   5977.58
 6.43114   6041.02
 6.47326   6058.61
 6.51538   6083.62
 6.5575   6140.18
 6.59962   6158.38
 6.64174   6281.02
 6.68386   6440.77
 6.72598   6499.3
 6.7681   6643.91
 6.81022   6735.76
 6.85234   6909.48
 6.89446   7469.8
 6.93658   8351.82
 6.9787   8132.97
 7.02082   7663.16
 7.06294   7481.38
 7.10506   6953.8
 7.14718   6754.81
 7.1893   6667.68
 7.23142   6646.66
 7.27354   6685.31
 7.31566   6694.66
 7.35778   6832.18
 7.3999   6991.33
 7.44202   7315.32
 7.48414   7418.88
 7.52626   7159.7
 7.56838   6953.27
 7.6105   6720.02
 7.65262   6316.13
 7.69474   6122.97
 7.73686   5998.6
 7.77898   5877.5
 7.8211   5808.66
 7.86322   5746.18
 7.90534   5664.95
 7.94746   5627.05
 7.98958   5579.63
 8.0317   5501.19
 8.07382   5564.43
 8.11594   5675.24
 8.15806   5714.65
 8.20018   5950.42
 8.2423   6664.93
 8.28442   7565.29
 8.32654   6999.93
 8.36866   5993.08
 8.41078   7057.87
 8.4529   5777.16
 8.49502   5957.64
 8.53714   6609.54
 8.57926   7258.51
 8.62138   6753.5
 8.6635   5963.12
 8.70562   5520.81
 8.74774   5311.98
 8.78986   5213.6
 8.83198   5127.08
 8.8741   5020.71
 8.91622   4972.35
 8.95834   4956.69
 9.00046   4954.71
 9.04258   4927.12
 9.0847   4911.45
 9.12682   4948.1
 9.16894   5052.19
 9.21106   5189.44
 9.25318   5317.27
 9.2953   5526.9
 9.33742   5687.78
 9.37954   5554.59
 9.42166   5234.24
 9.46378   5115.78
 9.5059   5118.65
 9.54802   5149.05
 9.59014   5274.99
 9.63226   5370.07
 9.67438   5432.1
 9.7165   5376.51
 9.75862   5131.39
 9.80074   5185.92
 9.84286   7449.59
 9.88498   6993.14
 9.9271   5351.6
 9.96922   5326.53
 10.0113   5327.84
 10.0535   5229.63
 10.0956   5189.35
 10.1377   5219.17
 10.1798   5349.54
 10.2219   5603.68
 10.2641   5806.61
 10.3062   6081.53
 10.3483   5327.03
 10.3904   5203.62
 10.4325   5270.13
 10.4747   5412.11
 10.5168   5385.81
 10.5589   5244.23
 10.601   5116.48
 10.6431   5029.22
 10.6853   5019.4
 10.7274   5091.35
 10.7695   5147.4
 10.8116   5113.36
 10.8537   5060.36
 10.8959   4950.9
 10.938   4866.67
 10.9801   4795.03
 11.0222   4786.34
 11.0643   4797.74
 11.1065   4867.07
 11.1486   4945.08
 11.1907   4921.16
 11.2328   4824.86
 11.2749   4687.02
 11.3171   4603.55
 11.3592   4545.51
 11.4013   4519.15
 11.4434   4476.16
 11.4855   4461.24
 11.5277   4447.55
 11.5698   4412.99
 11.6119   4401.32
 11.654   4388.19
 11.6961   4360.83
 11.7383   4326.32
 11.7804   4340.95
 11.8225   4369.19
 11.8646   4443.35
 11.9067   4710.77
 11.9489   4612.07
 11.991   4612.97
 12.0331   4504.18
 12.0752   4389.01
 12.1173   4311.67
 12.1595   4206.88
 12.2016   4137
 12.2437   4101.73
 12.2858   4085.97
 12.3279   4077.21
 12.3701   4114.91
 12.4122   4133.26
 12.4543   4139.01
 12.4964   4109.07
 12.5385   4081.64
 12.5807   4059.44
 12.6228   4098.5
 12.6649   4157.72
 12.6977   4226.65

File: MA2b-00006_spotsmasked.chi
MA2b-00006.tif Azm= 0.00
2-Theta Angle (Degrees)
Intensity
       2500
 1.03978   7735.69
 1.0819   7538.94
 1.12402   7361.41
 1.16614   7196.42
 1.20826   7143.75
 1.25038   7105.16
 1.2925   7079.11
 1.33462   7159.34
 1.37674   7210.6
 1.41886   7338.96
 1.46098   7513.12
 1.5031   7715.49
 1.54522   7732.96
 1.58734   7687.44
 1.62946   7681.9
 1.67158   7695.62
 1.7137   7733.98
 1.75582   7777.06
 1.79794   7862.85
 1.84006   8008.09
 1.88218   8201.51
 1.9243   8383.31
 1.96642   8622.16
 2.00854   8834.92
 2.05066   9136.6
 2.09278   9994.84
 2.1349   23491.9
 2.17702   21821.4
 2.21914   12480.1
 2.26126   10889.1
 2.30338   10446.3
 2.3455   10625.3
 2.38762   10930.7
 2.42974   11238.6
 2.47186   11557.9
 2.51398   11884.5
 2.5561   12214
 2.59822   12465.9
 2.64034   12668.8
 2.68246   12758.8
 2.72458   12871.5
 2.7667   12814.2
 2.80882   12722
 2.85094   12617.5
 2.89306   12473.2
 2.93518   12291.1
 2.9773   12106.1
 3.01942   11881.6
 3.06154   11621.7
 3.10366   11393
 3.14578   11239.3
 3.1879   11100.3
 3.23002   10916.5
 3.27214   10837.3
 3.31426   10805.7
 3.35638   10729.4
 3.3985   10727.1
 3.44062   10733.5
 3.48274   10768.2
 3.52486   10745.1
 3.56698   10752.7
 3.6091   10714.3
 3.65122   10649.9
 3.69334   10588
 3.73546   10220.1
 3.77758   9847.71
 3.8197   9611.71
 3.86182   9366.43
 3.90394   9062.5
 3.94606   8813.67
 3.98818   8574.68
 4.0303   8442.57
 4.07242   8246.34
 4.11454   8141.81
 4.15666   7992.89
 4.19878   7839.1
 4.2409   7994.91
 4.28302   9462.02
 4.32514   9115.29
 4.36726   8237.09
 4.40938   7750.69
 4.4515   7509.85
 4.49362   7390.65
 4.53574   7102.07
 4.57786   6931.48
 4.61998   6762.58
 4.6621   6674.72
 4.70422   6612.03
 4.74634   6800.41
 4.78846   7458.28
 4.83058   9370.11
 4.8727   7962.09
 4.91482   7419.87
 4.95694   8566.23
 4.99906   10409
 5.04118   7804.95
 5.0833   7071.25
 5.12542   21019.7
 5.16754   19269.6
 5.20966   6466.6
 5.25178   5978.52
 5.2939   5886.29
 5.33602   5829.91
 5.37814   5808.1
 5.42026   5827.5
 5.46238   5930.92
 5.5045   6374.26
 5.54662   8507.02
 5.58874   9082.67
 5.63086   7222.15
 5.67298   6362.51
 5.7151   6049
 5.75722   6097.36
 5.79934   6085.12
 5.84146   6168.6
 5.88358   6733.16
 5.9257   11140.2
 5.96782   11430.5
 6.00994   8814.95
 6.05206   6846.31
 6.09418   6123.01
 6.1363   5956.83
 6.17842   5909.9
 6.22054   5883.55
 6.26266   5894.33
 6.30478   5932.56
 6.3469   5943.66
 6.38902   5979.43
 6.43114   6048.32
 6.47326   6058.61
 6.51538   6083.62
 6.5575   6142.61
 6.59962   6158.38
 6.64174   6281.02
 6.68386   6440.77
 6.72598   6499.3
 6.7681   6643.91
 6.81022   6735.76
 6.85234   6909.48
 6.89446   7469.8
 6.93658   8351.82
 6.9787   8132.97
 7.02082   7663.16
 7.06294   7494.45
 7.10506   6953.8
 7.14718   6754.81
 7.1893   6669.62
 7.23142   6646.66
 7.27354   6688.05
 7.31566   6698.09
 7.35778   6833.21
 7.3999   6991.33
 7.44202   7315.32
 7.48414   7418.88
 7.52626   7159.7
 7.56838   6953.27
 7.6105   6720.02
 7.65262   6317.63
 7.69474   6122.97
 7.73686   5998.6
 7.77898   5877.5
 7.8211   5808.66
 7.86322   5746.18
 7.90534   5666.52
 7.94746   5627.05
 7.98958   5579.63
 8.0317   5501.19
 8.07382   5564.43
 8.11594   5677.42
 8.15806   5716.03
 8.20018   5950.42
 8.2423   6668.87
 8.28442   7565.29
 8.32654   7008.88
 8.36866   5994.81
 8.41078   8521.38
 8.4529   5778.31
 8.49502   5958.65
 8.53714   6612.6
 8.57926   7259.45
 8.62138   6753.5
 8.6635   5963.12
 8.70562   5524.76
 8.74774   5311.98
 8.78986   5214.31
 8.83198   5127.78
 8.8741   5029.31
 8.91622   4973.68
 8.95834   4956.69
 9.00046   4955.35
 9.04258   4928.38
 9.0847   4912.07
 9.12682   4949.79
 9.16894   5052.16
 9.21106   5190
 9.25318   5318.22
 9.2953   5527.4
 9.33742   5687.71
 9.37954   5556.99
 9.42166   5234.38
 9.46378   5115.27
 9.5059   5118.19
 9.54802   5153.2
 9.59014   5275.5
 9.63226   5370.73
 9.67438   5432.1
 9.7165   5383.51
 9.75862   5142.94
 9.80074   5189.34
 9.84286   8057.66
 9.88498   7870.8
 9.9271   5351.6
 9.96922   5326.53
 10.0113   5329.11
 10.0535   5230.94
 10.0956   5189.35
 10.1377   5219.87
 10.1798   5353.02
 10.2219   5608.82
 10.2641   5822.94
 10.3062   8464.74
 10.3483   5327.03
 10.3904   5204.41
 10.4325   5270.13
 10.4747   5413.22
 10.5168   5386.74
 10.5589   5244.23
 10.601   5116.48
 10.6431   5030.78
 10.6853   5020.1
 10.7274   5093.7
 10.7695   5148.76
 10.8116   5114.7
 10.8537   5062.05
 10.8959   4951.97
 10.938   4867.71
 10.9801   4796.05
 11.0222   4786.39
 11.0643   4797.76
 11.1065   4867.54
 11.1486   4945.06
 11.1907   4921.99
 11.2328   4825.33
 11.2749   4688.18
 11.3171   4602.7
 11.3592   4544.35
 11.4013   4517.98
 11.4434   4475.75
 11.4855   4460.41
 11.5277   4447.54
 11.5698   4413.79
 11.6119   4401.36
 11.654   4387.34
 11.6961   4360.83
 11.7383   4326.32
 11.7804   4341.67
 11.8225   4369.9
 11.8646   4448.41
 11.9067   5081.84
 11.9489   4613.03
 11.991   4613.45
 12.0331   4504.6
 12.0752   4390.11
 12.1173   4311.61
 12.1595   4208.1
 12.2016   4137.79
 12.2437   4101.73
 12.2858   4088.57
 12.3279   4079.37
 12.3701   4115.68
 12.4122   4133.66
 12.4543   4140.38
 12.4964   4109.39
 12.5385   4082.26
 12.5807   4060.76
 12.6228   4098.47
 12.6649   4158.27
 12.6977   4227.9

File: MA2b-00007_arcsmasked.chi
MA2b-00007.tif Azm= 0.00
2-Theta Angle (Degrees)
Intensity
       2500
 1.03978   7792.69
 1.0819   7596.63
 1.12402   7418.64
 1.16614   7306.25
 1.20826   7251.32
 1.25038   7167.88
 1.2925   7150.96
 1.33462   7226.01
 1.37674   7295.84
 1.41886   7400.86
 1.46098   7594.1
 1.5031   7796.65
 1.54522   7827.05
 1.58734   7762.16
 1.62946   7744.39
 1.67158   7775.59
 1.7137   7767.14
 1.75582   7836.84
 1.79794   7943.57
 1.84006   8073.09
 1.88218   8251.47
 1.9243   8486.22
 1.96642   8709.07
 2.00854   8932.95
 2.05066   9233.59
 2.09278   10248.3
 2.1349   26322
 2.17702   20841.8
 2.21914   12026.8
 2.26126   10820.2
 2.30338   10515.9
 2.3455   10725.3
 2.38762   10981.9
 2.42974   11320.5
 2.47186   11650.4
 2.51398   11959.4
 2.5561   12261.9
 2.59822   12566.4
 2.64034   12731.7
 2.68246   12903.9
 2.72458   12948.5
 2.7667   12933.9
 2.80882   12853.5
 2.85094   12706.4
 2.89306   12550.1
 2.93518   12399.1
 2.9773   12194.8
 3.01942   11978.6
 3.06154   11698
 3.10366   11484.6
 3.14578   11309.2
 3.1879   11187
 3.23002   11018.5
 3.27214   10942.3
 3.31426   10909.8
 3.35638   10871
 3.3985   10869.5
 3.44062   10925.4
 3.48274   10911.5
 3.52486   10940.9
 3.56698   11048.5
 3.6091   11064.1
 3.65122   11102.7
 3.69334   11471.2
 3.73546   11618.6
 3.77758   11908.5
 3.8197   13196
 3.86182   14232.5
 3.90394   19138.9
 3.94606   77214.5
 3.98818   59304
 4.0303   19359.4
 4.07242   13379
 4.11454   11782.3
 4.15666   10367.5
 4.19878   9855.69
 4.2409   9446.28
 4.28302   10511
 4.32514   9620.47
 4.36726   8445.23
 4.40938   7872.06
 4.4515   7583.9
 4.49362   7396.8
 4.53574   7132.29
 4.57786   6956.46
 4.61998   6805.6
 4.6621   6711.49
 4.70422   6639
 4.74634   6780.08
 4.78846   7310.56
 4.83058   9389.35
 4.8727   8226.47
 4.91482   7353.33
 4.95694   8559.9
 4.99906   10948.4
 5.04118   8116.42
 5.0833   7156.41
 5.12542   8952.59
 5.16754   8749.15
 5.20966   6384.94
 5.25178   6068.37
 5.2939   5938.73
 5.33602   5884.76
 5.37814   5884.63
 5.42026   5871.07
 5.46238   5928.04
 5.5045   6305.88
 5.54662   7863.8
 5.58874   8557.51
 5.63086   7060.05
 5.67298   6304.08
 5.7151   6070.16
 5.75722   6174.7
 5.79934   6161.56
 5.84146   6257.38
 5.88358   6837.55
 5.9257   9189.68
 5.96782   11098.8
 6.00994   9307.67
 6.05206   7026.2
 6.09418   6204.83
 6.1363   6006.64
 6.17842   5965.78
 6.22054   5914.81
 6.26266   5940.69
 6.30478   5987.6
 6.3469   6011.6
 6.38902   6050.58
 6.43114   6165.06
 6.47326   6268.97
 6.51538   6362.98
 6.5575   6454.57
 6.59962   6638.22
 6.64174   6893.4
 6.68386   7117.91
 6.72598   7277.08
 6.7681   7715.35
 6.81022   8318.97
 6.85234   14481.9
 6.89446   23562.6
 6.93658   10295.9
 6.9787   9400.3
 7.02082   8367.28
 7.06294   7996.32
 7.10506   7415.4
 7.14718   7169.17
 7.1893   7006.96
 7.23142   6904.79
 7.27354   6944.84
 7.31566   6881.13
 7.35778   6936.58
 7.3999   7077.12
 7.44202   7446.49
 7.48414   7513.29
 7.52626   7131.35
 7.56838   6874.92
 7.6105   6722.06
 7.65262   6487.75
 7.69474   6384.43
 7.73686   6345.2
 7.77898   6388.17
 7.8211   6480.75
 7.86322   6512.05
 7.90534   6928.02
 7.94746   25590.5
 7.98958   6987.56
 8.0317   6249.94
 8.07382   6144.33
 8.11594   6193.31
 8.15806   6140.01
 8.20018   6195.28
 8.2423   6787.52
 8.28442   7867.23
 8.32654   7484.88
 8.36866   6303.57
 8.41078   9755.88
 8.4529   5868.9
 8.49502   5971.14
 8.53714   6694.21
 8.57926   7601.69
 8.62138   7045.32
 8.6635   6109.48
 8.70562   5602.79
 8.74774   5391.2
 8.78986   5299
 8.83198   5331.56
 8.8741   6752.31
 8.91622   5122.81
 8.95834   5062.01
 9.00046   5046.29
 9.04258   5011.18
 9.0847   4987.09
 9.12682   5029.49
 9.16894   5123.72
 9.21106   5247.57
 9.25318   5350.68
 9.2953   5519.13
 9.33742   5716.93
 9.37954   5585.4
 9.42166   5265.69
 9.46378   5117.67
 9.5059   5128.34
 9.54802   5158.5
 9.59014   5309.85
 9.63226   5443.07
 9.67438   5591.93
 9.7165   7094.03
 9.75862   5346.84
 9.80074   5259.64
 9.84286   7766.19
 9.88498   7559.04
 9.9271   5351.23
 9.96922   5337.2
 10.0113   5356.44
 10.0535   5258.69
 10.0956   5230.55
 10.1377   5252.38
 10.1798   5398.78
 10.2219   5698.98
 10.2641   5944.46
 10.3062   6179.74
 10.3483   5418.14
 10.3904   5340.53
 10.4325   5441.66
 10.4747   5782.19
 10.5168   6227.17
 10.5589   5382.24
 10.601   5215.32
 10.6431   5112.74
 10.6853   5077.54
 10.7274   5159.64
 10.7695   5191.01
 10.8116   5171.89
 10.8537   5110.27
 10.8959   4990.02
 10.938   4899.95
 10.9801   4836.75
 11.0222   4813.82
 11.0643   4815.46
 11.1065   4867.91
 11.1486   4966.86
 11.1907   4958.52
 11.2328   4931.67
 11.2749   4693.62
 11.3171   4624.97
 11.3592   4569.77
 11.4013   4539.6
 11.4434   4509.05
 11.4855   4490.7
 11.5277   4467.7
 11.5698   4432.57
 11.6119   4435.47
 11.654   4405.04
 11.6961   4390.21
 11.7383   4361.97
 11.7804   4377.89
 11.8225   4397.69
 11.8646   4492.44
 11.9067   4833.69
 11.9489   4689.55
 11.991   4668.02
 12.0331   4548.71
 12.0752   4414.22
 12.1173   4311.39
 12.1595   4230.28
 12.2016   4167.04
 12.2437   4129.98
 12.2858   4110.25
 12.3279   4106.82
 12.3701   4147.3
 12.4122   4161.99
 12.4543   4156.7
 12.4964   4118.66
 12.5385   4091.04
 12.5807   4073.33
 12.6228   4100.51
 12.6649   4170.39
 12.6977   4240.31