Folder: XRDdatapipeline/docs/GuiliangJun25_tutorial_output/integrals (part 8)

File: MA2b-00007_om.chi
MA2b-00007.tif Azm= 0.00
2-Theta Angle (Degrees)
Intensity
       2500
 1.03978   7792.69
 1.0819   7591.65
 1.12402   7418.64
 1.16614   7300.93
 1.20826   7251.32
 1.25038   7167.88
 1.2925   7150.96
 1.33462   7206.99
 1.37674   7273.6
 1.41886   7387.82
 1.46098   7585.76
 1.5031   7779.52
 1.54522   7814.71
 1.58734   7755.66
 1.62946   7732.21
 1.67158   7756.48
 1.7137   7753.25
 1.75582   7833.98
 1.79794   7929.59
 1.84006   8070.45
 1.88218   8243.98
 1.9243   8475.03
 1.96642   8686.98
 2.00854   8924.22
 2.05066   9230.19
 2.09278   10245.4
 2.1349   27084.2
 2.17702   20841.8
 2.21914   12023.5
 2.26126   10812
 2.30338   10512.2
 2.3455   10725.9
 2.38762   10979.8
 2.42974   11313.8
 2.47186   11648.2
 2.51398   11951.6
 2.5561   12260.1
 2.59822   12558.3
 2.64034   12728.2
 2.68246   12873.6
 2.72458   12881.1
 2.7667   12881.1
 2.80882   12815.5
 2.85094   12662.3
 2.89306   12521.6
 2.93518   12369.3
 2.9773   12164.4
 3.01942   11961
 3.06154   11677.2
 3.10366   11468.6
 3.14578   11283.3
 3.1879   11163
 3.23002   10993
 3.27214   10912.4
 3.31426   10862.3
 3.35638   10830
 3.3985   10805.3
 3.44062   10841.8
 3.48274   10813.4
 3.52486   10811.1
 3.56698   10822.4
 3.6091   10806.2
 3.65122   10699.4
 3.69334   10652
 3.73546   10329.5
 3.77758   9931.46
 3.8197   9647.23
 3.86182   9475.59
 3.90394   9142.38
 3.94606   8852.21
 3.98818   8686.1
 4.0303   8482.29
 4.07242   8282.15
 4.11454   8226.38
 4.15666   8043.6
 4.19878   7917.7
 4.2409   8086.22
 4.28302   9841.87
 4.32514   9102.2
 4.36726   8173.16
 4.40938   7718.37
 4.4515   7558.15
 4.49362   7386.29
 4.53574   7128.84
 4.57786   6953.62
 4.61998   6802.99
 4.6621   6706.65
 4.70422   6636.87
 4.74634   6776.6
 4.78846   7307.15
 4.83058   9389.35
 4.8727   8226.47
 4.91482   7353.33
 4.95694   8558.51
 4.99906   10942.8
 5.04118   8116.42
 5.0833   7156.41
 5.12542   8850.37
 5.16754   8749.15
 5.20966   6376.18
 5.25178   6022.28
 5.2939   5911.82
 5.33602   5867.11
 5.37814   5819.04
 5.42026   5838.64
 5.46238   5905.92
 5.5045   6249.39
 5.54662   7842.85
 5.58874   8441.48
 5.63086   6982.08
 5.67298   6278.8
 5.7151   6055.2
 5.75722   6130.15
 5.79934   6135.33
 5.84146   6247.45
 5.88358   6825.6
 5.9257   9082.2
 5.96782   11095.8
 6.00994   9306.33
 6.05206   7019.03
 6.09418   6203.67
 6.1363   6004.24
 6.17842   5965.78
 6.22054   5914.81
 6.26266   5936.23
 6.30478   5982.91
 6.3469   5992.21
 6.38902   6002.33
 6.43114   6085.85
 6.47326   6106.75
 6.51538   6134.16
 6.5575   6205.1
 6.59962   6230.1
 6.64174   6326.04
 6.68386   6515.63
 6.72598   6569.17
 6.7681   6698.68
 6.81022   6811.88
 6.85234   6971.79
 6.89446   7579.29
 6.93658   8538.26
 6.9787   8187.45
 7.02082   7633.61
 7.06294   7488.19
 7.10506   6987.15
 7.14718   6800.78
 7.1893   6745.22
 7.23142   6692.86
 7.27354   6729.56
 7.31566   6740.77
 7.35778   6881.02
 7.3999   7058.98
 7.44202   7437.85
 7.48414   7513.29
 7.52626   7131.35
 7.56838   6867.04
 7.6105   6653.71
 7.65262   6329.69
 7.69474   6148.58
 7.73686   6033.47
 7.77898   5898.35
 7.8211   5848.16
 7.86322   5775.41
 7.90534   5688.19
 7.94746   5649.33
 7.98958   5617.1
 8.0317   5542.34
 8.07382   5557.2
 8.11594   5636.8
 8.15806   5695.43
 8.20018   5853.56
 8.2423   6488.6
 8.28442   7633.89
 8.32654   7356.88
 8.36866   6144.41
 8.41078   7100.8
 8.4529   5759.83
 8.49502   5913.9
 8.53714   6646.51
 8.57926   7551.31
 8.62138   7005.81
 8.6635   6058.28
 8.70562   5539.76
 8.74774   5320.65
 8.78986   5208.5
 8.83198   5137.59
 8.8741   5054.65
 8.91622   4998.98
 8.95834   4981.23
 9.00046   4983.61
 9.04258   4958.25
 9.0847   4935.86
 9.12682   4990.72
 9.16894   5094.75
 9.21106   5233.36
 9.25318   5341.29
 9.2953   5511.51
 9.33742   5711.17
 9.37954   5578.79
 9.42166   5263.14
 9.46378   5112.24
 9.5059   5124.24
 9.54802   5140.49
 9.59014   5287.72
 9.63226   5408.48
 9.67438   5504.71
 9.7165   5484
 9.75862   5201.66
 9.80074   5211.96
 9.84286   7486.11
 9.88498   7001.95
 9.9271   5350.61
 9.96922   5336.51
 10.0113   5353.81
 10.0535   5254.66
 10.0956   5227.97
 10.1377   5248.6
 10.1798   5392.95
 10.2219   5686.61
 10.2641   5944.46
 10.3062   6155.46
 10.3483   5389.46
 10.3904   5255.53
 10.4325   5352.04
 10.4747   5489.29
 10.5168   5465.63
 10.5589   5303.5
 10.601   5141.2
 10.6431   5054.62
 10.6853   5041.4
 10.7274   5134.56
 10.7695   5171.89
 10.8116   5165.43
 10.8537   5105
 10.8959   4983.77
 10.938   4895.3
 10.9801   4836.48
 11.0222   4812.44
 11.0643   4815.09
 11.1065   4867.04
 11.1486   4964.04
 11.1907   4956.68
 11.2328   4849.7
 11.2749   4693.72
 11.3171   4621.77
 11.3592   4570.28
 11.4013   4540.25
 11.4434   4507.44
 11.4855   4490.57
 11.5277   4466.63
 11.5698   4431.82
 11.6119   4434.74
 11.654   4404.66
 11.6961   4388.3
 11.7383   4359.93
 11.7804   4375.56
 11.8225   4393.71
 11.8646   4485.58
 11.9067   4768.6
 11.9489   4673.09
 11.991   4659.67
 12.0331   4539.65
 12.0752   4407.96
 12.1173   4308.32
 12.1595   4226.87
 12.2016   4165.15
 12.2437   4126.76
 12.2858   4107.83
 12.3279   4105.19
 12.3701   4142.99
 12.4122   4158.98
 12.4543   4152.75
 12.4964   4116.45
 12.5385   4080.47
 12.5807   4062.84
 12.6228   4097.09
 12.6649   4167.8
 12.6977   4237.84

File: MA2b-00007_spotsmasked.chi
MA2b-00007.tif Azm= 0.00
2-Theta Angle (Degrees)
Intensity
       2500
 1.03978   7792.69
 1.0819   7596.63
 1.12402   7418.64
 1.16614   7306.25
 1.20826   7251.32
 1.25038   7167.88
 1.2925   7150.96
 1.33462   7206.99
 1.37674   7277.74
 1.41886   7387.82
 1.46098   7582.02
 1.5031   7779.52
 1.54522   7814.71
 1.58734   7755.66
 1.62946   7735.77
 1.67158   7758.96
 1.7137   7747.78
 1.75582   7836.84
 1.79794   7931.82
 1.84006   8070.45
 1.88218   8243.98
 1.9243   8477.22
 1.96642   8686.98
 2.00854   8924.22
 2.05066   9230.19
 2.09278   10245.4
 2.1349   26322
 2.17702   20841.8
 2.21914   12023.5
 2.26126   10815.5
 2.30338   10509.9
 2.3455   10721.9
 2.38762   10978
 2.42974   11313.5
 2.47186   11646.2
 2.51398   11951.7
 2.5561   12261.9
 2.59822   12560.1
 2.64034   12730
 2.68246   12873.6
 2.72458   12881.5
 2.7667   12882.7
 2.80882   12815.5
 2.85094   12662.7
 2.89306   12523.4
 2.93518   12367.9
 2.9773   12164.5
 3.01942   11961
 3.06154   11675.8
 3.10366   11468.6
 3.14578   11283.3
 3.1879   11163
 3.23002   10993
 3.27214   10914.2
 3.31426   10862.3
 3.35638   10829.9
 3.3985   10805.3
 3.44062   10841.8
 3.48274   10813.4
 3.52486   10811.1
 3.56698   10822.4
 3.6091   10806.2
 3.65122   10699.4
 3.69334   10652
 3.73546   10329.5
 3.77758   9931.46
 3.8197   9647.23
 3.86182   9475.59
 3.90394   9142.38
 3.94606   8859.5
 3.98818   8686.1
 4.0303   8482.29
 4.07242   8282.15
 4.11454   8226.38
 4.15666   8043.6
 4.19878   7917.7
 4.2409   8086.22
 4.28302   9861.35
 4.32514   9102.2
 4.36726   8173.16
 4.40938   7722.57
 4.4515   7558.15
 4.49362   7386.29
 4.53574   7128.84
 4.57786   6953.62
 4.61998   6805.6
 4.6621   6706.65
 4.70422   6639
 4.74634   6778.53
 4.78846   7307.15
 4.83058   9389.35
 4.8727   8226.47
 4.91482   7353.33
 4.95694   8558.51
 4.99906   10944.1
 5.04118   8116.42
 5.0833   7183.35
 5.12542   21399.7
 5.16754   19450
 5.20966   6508
 5.25178   6023.59
 5.2939   5911.82
 5.33602   5867.11
 5.37814   5821.07
 5.42026   5839.54
 5.46238   5905.86
 5.5045   6248.4
 5.54662   7842.85
 5.58874   8441.48
 5.63086   6982.85
 5.67298   6278.96
 5.7151   6054.3
 5.75722   6132.15
 5.79934   6135.33
 5.84146   6248.53
 5.88358   6826.91
 5.9257   11471.5
 5.96782   12110.9
 6.00994   9307.67
 6.05206   7023.72
 6.09418   6204.83
 6.1363   6006.64
 6.17842   5965.78
 6.22054   5914.81
 6.26266   5940.69
 6.30478   5987.6
 6.3469   5993.87
 6.38902   6002.33
 6.43114   6087.72
 6.47326   6108.92
 6.51538   6134.16
 6.5575   6207.67
 6.59962   6230.1
 6.64174   6326.04
 6.68386   6515.63
 6.72598   6569.17
 6.7681   6698.68
 6.81022   6811.88
 6.85234   6971.79
 6.89446   7579.29
 6.93658   8538.26
 6.9787   8187.45
 7.02082   7633.61
 7.06294   7494.89
 7.10506   6987.15
 7.14718   6800.78
 7.1893   6747.14
 7.23142   6692.86
 7.27354   6729.56
 7.31566   6744.46
 7.35778   6882.04
 7.3999   7060.04
 7.44202   7439.76
 7.48414   7513.29
 7.52626   7131.35
 7.56838   6867.04
 7.6105   6653.71
 7.65262   6332.63
 7.69474   6150.01
 7.73686   6034.91
 7.77898   5900.05
 7.8211   5848.16
 7.86322   5776.94
 7.90534   5688.19
 7.94746   5650.9
 7.98958   5618.58
 8.0317   5543.8
 8.07382   5557.2
 8.11594   5636.8
 8.15806   5698.27
 8.20018   5853.56
 8.2423   6490.03
 8.28442   7636.53
 8.32654   7358.29
 8.36866   6147.41
 8.41078   8587.32
 8.4529   5761.08
 8.49502   5915.96
 8.53714   6649.87
 8.57926   7553.62
 8.62138   7005.81
 8.6635   6058.28
 8.70562   5541.36
 8.74774   5321.36
 8.78986   5208.5
 8.83198   5137.59
 8.8741   5055.9
 8.91622   5000.41
 8.95834   4981.23
 9.00046   4982.97
 9.04258   4959.47
 9.0847   4937.14
 9.12682   4991.99
 9.16894   5096.98
 9.21106   5233.36
 9.25318   5342.23
 9.2953   5514.82
 9.33742   5712.29
 9.37954   5582.2
 9.42166   5262.68
 9.46378   5114.12
 9.5059   5123.75
 9.54802   5142.28
 9.59014   5287.18
 9.63226   5409.67
 9.67438   5515.4
 9.7165   5510.24
 9.75862   5211.04
 9.80074   5212.62
 9.84286   8140.66
 9.88498   8040.54
 9.9271   5350.61
 9.96922   5337.2
 10.0113   5356.44
 10.0535   5258.69
 10.0956   5229.93
 10.1377   5251.28
 10.1798   5396.46
 10.2219   5688.61
 10.2641   5954.65
 10.3062   8546.9
 10.3483   5389.46
 10.3904   5258.39
 10.4325   5352.83
 10.4747   5490.64
 10.5168   5467.37
 10.5589   5303.5
 10.601   5142.66
 10.6431   5054.62
 10.6853   5041.4
 10.7274   5135.09
 10.7695   5174.56
 10.8116   5166.56
 10.8537   5107.48
 10.8959   4984.94
 10.938   4898.48
 10.9801   4836.02
 11.0222   4813.36
 11.0643   4815.03
 11.1065   4867.91
 11.1486   4964.87
 11.1907   4957.58
 11.2328   4849.32
 11.2749   4692.56
 11.3171   4620.87
 11.3592   4568.68
 11.4013   4538.37
 11.4434   4507.37
 11.4855   4490.07
 11.5277   4466.62
 11.5698   4431.69
 11.6119   4433.93
 11.654   4405.04
 11.6961   4388.22
 11.7383   4360.32
 11.7804   4375.56
 11.8225   4393.71
 11.8646   4488.82
 11.9067   5138.85
 11.9489   4675.03
 11.991   4660.13
 12.0331   4541.5
 12.0752   4408.33
 12.1173   4308.84
 12.1595   4227.46
 12.2016   4164.26
 12.2437   4127.09
 12.2858   4108.54
 12.3279   4105.21
 12.3701   4143.31
 12.4122   4159.66
 12.4543   4153.79
 12.4964   4117.4
 12.5385   4080.06
 12.5807   4063.92
 12.6228   4097.29
 12.6649   4169.08
 12.6977   4238.71