Folder: XRDdatapipeline/docs/GuiliangJun25_tutorial_output/integrals (part 6)

File: MA2b-00004_spotsmasked.chi
MA2b-00004.tif Azm= 0.00
2-Theta Angle (Degrees)
Intensity
       2500
 1.03978   7727.2
 1.0819   7513.49
 1.12402   7333.44
 1.16614   7237.03
 1.20826   7146.54
 1.25038   7121.17
 1.2925   7098.22
 1.33462   7140.52
 1.37674   7213.53
 1.41886   7339.75
 1.46098   7517.01
 1.5031   7746.5
 1.54522   7748.86
 1.58734   7681.77
 1.62946   7684.74
 1.67158   7698.64
 1.7137   7705.46
 1.75582   7782.98
 1.79794   7840.55
 1.84006   7991.74
 1.88218   8195.59
 1.9243   8378.49
 1.96642   8602.92
 2.00854   8829.13
 2.05066   9101.59
 2.09278   9717.09
 2.1349   18285.3
 2.17702   23762.5
 2.21914   14023
 2.26126   11338.1
 2.30338   10479
 2.3455   10624.4
 2.38762   10903
 2.42974   11215.6
 2.47186   11543
 2.51398   11888.1
 2.5561   12174.3
 2.59822   12463.1
 2.64034   12658
 2.68246   12772.4
 2.72458   12838.2
 2.7667   12788.3
 2.80882   12723.5
 2.85094   12600.8
 2.89306   12454.7
 2.93518   12278.6
 2.9773   12080.8
 3.01942   11865.1
 3.06154   11605.6
 3.10366   11382.1
 3.14578   11207.9
 3.1879   11084.4
 3.23002   10888.2
 3.27214   10806.6
 3.31426   10779.9
 3.35638   10695.1
 3.3985   10697.7
 3.44062   10730.2
 3.48274   10710.4
 3.52486   10697.5
 3.56698   10737.5
 3.6091   10708.4
 3.65122   10616.8
 3.69334   10561
 3.73546   10256.2
 3.77758   9799.93
 3.8197   9578.06
 3.86182   9357.06
 3.90394   9077.94
 3.94606   8781.49
 3.98818   8616.27
 4.0303   8408.58
 4.07242   8192.66
 4.11454   8122.88
 4.15666   7977.88
 4.19878   7818.95
 4.2409   7901.38
 4.28302   8780.49
 4.32514   9003.62
 4.36726   8634.92
 4.40938   7915.39
 4.4515   7610.19
 4.49362   7441.76
 4.53574   7091.58
 4.57786   6885.09
 4.61998   6745.12
 4.6621   6650.33
 4.70422   6608.13
 4.74634   6954.29
 4.78846   8004.32
 4.83058   9254.56
 4.8727   7526.89
 4.91482   7666.85
 4.95694   8543.46
 4.99906   9219.08
 5.04118   7243.45
 5.0833   6927.4
 5.12542   20834.4
 5.16754   19190
 5.20966   6410.31
 5.25178   5967.13
 5.2939   5869.29
 5.33602   5819.97
 5.37814   5802.67
 5.42026   5867.35
 5.46238   6055.37
 5.5045   6882.56
 5.54662   10575.8
 5.58874   10946.8
 5.63086   7980.66
 5.67298   6612.41
 5.7151   6094.82
 5.75722   6065.53
 5.79934   6010.23
 5.84146   6048.65
 5.88358   6464.73
 5.9257   10420.3
 5.96782   9944.03
 6.00994   7787.32
 6.05206   6518.27
 6.09418   6002.66
 6.1363   5893.71
 6.17842   5869.2
 6.22054   5857.23
 6.26266   5882.07
 6.30478   5921.21
 6.3469   5920.18
 6.38902   5945.09
 6.43114   5988.29
 6.47326   5998.55
 6.51538   6051.81
 6.5575   6134.28
 6.59962   6150.19
 6.64174   6268.93
 6.68386   6419.21
 6.72598   6483.28
 6.7681   6601.72
 6.81022   6734.64
 6.85234   6891.67
 6.89446   7363.33
 6.93658   8123.41
 6.9787   8102.9
 7.02082   7856.54
 7.06294   7578.45
 7.10506   6960.58
 7.14718   6737.37
 7.1893   6659.16
 7.23142   6620.1
 7.27354   6667.07
 7.31566   6672.57
 7.35778   6819.71
 7.3999   6959.61
 7.44202   7144.04
 7.48414   7285.47
 7.52626   7332.08
 7.56838   7303.46
 7.6105   7013.54
 7.65262   6420.91
 7.69474   6146.45
 7.73686   6019.59
 7.77898   5895.43
 7.8211   5818.44
 7.86322   5750.17
 7.90534   5653.41
 7.94746   5623.91
 7.98958   5556.35
 8.0317   5511.15
 8.07382   5598.12
 8.11594   5820.36
 8.15806   5897.75
 8.20018   6308.19
 8.2423   7052.73
 8.28442   7245.71
 8.32654   6393.43
 8.36866   5828.04
 8.41078   8545.67
 8.4529   5903.23
 8.49502   6148.28
 8.53714   6546.6
 8.57926   6716.06
 8.62138   6267.19
 8.6635   5784.09
 8.70562   5549.96
 8.74774   5429
 8.78986   5326.04
 8.83198   5225.96
 8.8741   5046.42
 8.91622   4988.09
 8.95834   4950.25
 9.00046   4954.67
 9.04258   4926.29
 9.0847   4894.96
 9.12682   4940.45
 9.16894   5018.89
 9.21106   5160.63
 9.25318   5372.16
 9.2953   5606.91
 9.33742   5716.89
 9.37954   5549.87
 9.42166   5287.57
 9.46378   5185.53
 9.5059   5217.84
 9.54802   5228.75
 9.59014   5312.65
 9.63226   5329.01
 9.67438   5321.7
 9.7165   5226.06
 9.75862   5099.65
 9.80074   5201.86
 9.84286   8107.49
 9.88498   7993.67
 9.9271   5466.01
 9.96922   5394.9
 10.0113   5356.74
 10.0535   5236.08
 10.0956   5189.99
 10.1377   5209.32
 10.1798   5305.36
 10.2219   5447.89
 10.2641   5638.18
 10.3062   8376.1
 10.3483   5287.88
 10.3904   5153.09
 10.4325   5186.1
 10.4747   5283.74
 10.5168   5295.33
 10.5589   5204.07
 10.601   5093.58
 10.6431   5024.34
 10.6853   5023.47
 10.7274   5071.42
 10.7695   5116.61
 10.8116   5096.73
 10.8537   5049.01
 10.8959   4959
 10.938   4875.12
 10.9801   4809.75
 11.0222   4780.34
 11.0643   4811.39
 11.1065   4904.81
 11.1486   4981.69
 11.1907   4919.56
 11.2328   4833.49
 11.2749   4715.27
 11.3171   4654.57
 11.3592   4570.38
 11.4013   4530.35
 11.4434   4506.28
 11.4855   4482.48
 11.5277   4451.76
 11.5698   4409.46
 11.6119   4396.68
 11.654   4382.17
 11.6961   4356.6
 11.7383   4337.22
 11.7804   4339.54
 11.8225   4357.53
 11.8646   4444.93
 11.9067   5043.27
 11.9489   4539.62
 11.991   4556.18
 12.0331   4511.3
 12.0752   4433.03
 12.1173   4361.45
 12.1595   4250.73
 12.2016   4149.92
 12.2437   4106.03
 12.2858   4086.35
 12.3279   4083.48
 12.3701   4108.36
 12.4122   4128
 12.4543   4141.14
 12.4964   4145.92
 12.5385   4113.54
 12.5807   4137.52
 12.6228   4176.91
 12.6649   4214.19
 12.6977   4230.36

File: MA2b-00005_arcsmasked.chi
MA2b-00005.tif Azm= 0.00
2-Theta Angle (Degrees)
Intensity
       2500
 1.03978   7794.42
 1.0819   7587.31
 1.12402   7421.64
 1.16614   7307.11
 1.20826   7248.68
 1.25038   7177.5
 1.2925   7169.4
 1.33462   7189.35
 1.37674   7282.64
 1.41886   7379.44
 1.46098   7607.21
 1.5031   7816.86
 1.54522   7827.62
 1.58734   7770.16
 1.62946   7763.65
 1.67158   7776.13
 1.7137   7799.9
 1.75582   7815.95
 1.79794   7949.7
 1.84006   8071.11
 1.88218   8244.84
 1.9243   8454.62
 1.96642   8706.3
 2.00854   8917.76
 2.05066   9188.41
 2.09278   9951.39
 2.1349   21038.7
 2.17702   23051.2
 2.21914   13346.5
 2.26126   11185.5
 2.30338   10562.9
 2.3455   10747.1
 2.38762   11004.6
 2.42974   11307.7
 2.47186   11647.9
 2.51398   12008.7
 2.5561   12306.5
 2.59822   12562.9
 2.64034   12779
 2.68246   12904.8
 2.72458   13028.3
 2.7667   12977.2
 2.80882   12900.8
 2.85094   12738.8
 2.89306   12596.7
 2.93518   12418.2
 2.9773   12238.8
 3.01942   11990.2
 3.06154   11759.6
 3.10366   11533
 3.14578   11365.9
 3.1879   11212.3
 3.23002   11076.1
 3.27214   10995.1
 3.31426   10950.1
 3.35638   10881
 3.3985   10924.5
 3.44062   10980.3
 3.48274   10975.2
 3.52486   11019.1
 3.56698   11177.5
 3.6091   11159.2
 3.65122   11222.6
 3.69334   11703.1
 3.73546   11825.8
 3.77758   12127.7
 3.8197   13814.7
 3.86182   14744.6
 3.90394   22265.2
 3.94606   81149.7
 3.98818   56918.1
 4.0303   20042.5
 4.07242   13975.2
 4.11454   12048.7
 4.15666   10531.9
 4.19878   10005.8
 4.2409   9510.01
 4.28302   9951.78
 4.32514   9758.01
 4.36726   8845.17
 4.40938   8077.84
 4.4515   7703.13
 4.49362   7532.25
 4.53574   7195.4
 4.57786   6998.21
 4.61998   6835.07
 4.6621   6751.37
 4.70422   6689.01
 4.74634   6949.82
 4.78846   7810.22
 4.83058   9443.08
 4.8727   7828.65
 4.91482   7628.32
 4.95694   8651.13
 4.99906   9907.47
 5.04118   7593.25
 5.0833   7029.76
 5.12542   8908.79
 5.16754   8759.61
 5.20966   6389.29
 5.25178   6076.75
 5.2939   5958.64
 5.33602   5895.1
 5.37814   5917.89
 5.42026   5931.91
 5.46238   6063.53
 5.5045   6691.46
 5.54662   9563.49
 5.58874   10151.8
 5.63086   7727.24
 5.67298   6564.26
 5.7151   6154.24
 5.75722   6198.63
 5.79934   6125.09
 5.84146   6205.07
 5.88358   6686.86
 5.9257   8571.18
 5.96782   9782.32
 6.00994   8383.79
 6.05206   6765.56
 6.09418   6127.71
 6.1363   5988.22
 6.17842   5943.47
 6.22054   5924.32
 6.26266   5951.18
 6.30478   5994.99
 6.3469   6012.88
 6.38902   6062.7
 6.43114   6162.08
 6.47326   6260.71
 6.51538   6381.86
 6.5575   6477.53
 6.59962   6668.2
 6.64174   6942.34
 6.68386   7146.93
 6.72598   7326.66
 6.7681   7805.01
 6.81022   8551.24
 6.85234   18640.5
 6.89446   30513.7
 6.93658   10404.9
 6.9787   9521.69
 7.02082   8621.37
 7.06294   8149.65
 7.10506   7473.08
 7.14718   7204
 7.1893   7020.4
 7.23142   6920.89
 7.27354   6961.31
 7.31566   6897.57
 7.35778   6946.58
 7.3999   7054.52
 7.44202   7288.8
 7.48414   7410.54
 7.52626   7295.11
 7.56838   7185.2
 7.6105   6971.14
 7.65262   6574.32
 7.69474   6420.74
 7.73686   6360.01
 7.77898   6418.71
 7.8211   6493.71
 7.86322   6519.02
 7.90534   6886.85
 7.94746   24806.4
 7.98958   7036.5
 8.0317   6261.46
 8.07382   6204.16
 8.11594   6339.19
 8.15806   6296.03
 8.20018   6503.6
 8.2423   7200.07
 8.28442   7721.52
 8.32654   6903.9
 8.36866   6118.91
 8.41078   10158.7
 8.4529   5983.64
 8.49502   6152.64
 8.53714   6693.16
 8.57926   7073.84
 8.62138   6602.79
 8.6635   5977.33
 8.70562   5652.8
 8.74774   5484.37
 8.78986   5387.78
 8.83198   5414.38
 8.8741   6697.88
 8.91622   5146.02
 8.95834   5065.25
 9.00046   5059.12
 9.04258   5016.92
 9.0847   4999.46
 9.12682   5028.57
 9.16894   5096.73
 9.21106   5225.78
 9.25318   5389.54
 9.2953   5615.15
 9.33742   5741.22
 9.37954   5587.43
 9.42166   5303.51
 9.46378   5179.95
 9.5059   5205.27
 9.54802   5244.38
 9.59014   5343.31
 9.63226   5424.03
 9.67438   5519.86
 9.7165   6635.22
 9.75862   5261.15
 9.80074   5266.24
 9.84286   7790.07
 9.88498   7645.29
 9.9271   5456.3
 9.96922   5394
 10.0113   5377.19
 10.0535   5279.41
 10.0956   5241.84
 10.1377   5254.85
 10.1798   5369.99
 10.2219   5582.76
 10.2641   5762.1
 10.3062   6102.91
 10.3483   5387.9
 10.3904   5292.63
 10.4325   5349.65
 10.4747   5668.21
 10.5168   6488.08
 10.5589   5355.09
 10.601   5211.44
 10.6431   5129.03
 10.6853   5079.97
 10.7274   5148.84
 10.7695   5184
 10.8116   5162.86
 10.8537   5095.94
 10.8959   5003.33
 10.938   4907.95
 10.9801   4845.53
 11.0222   4828.4
 11.0643   4839.02
 11.1065   4921.12
 11.1486   5006.82
 11.1907   4959.58
 11.2328   4977.82
 11.2749   4730.2
 11.3171   4669.62
 11.3592   4590.92
 11.4013   4560.18
 11.4434   4529.08
 11.4855   4505.82
 11.5277   4482.41
 11.5698   4439.3
 11.6119   4438.97
 11.654   4408.23
 11.6961   4381.26
 11.7383   4365.21
 11.7804   4378.33
 11.8225   4394.55
 11.8646   4485.38
 11.9067   4803.27
 11.9489   4634.41
 11.991   4634.66
 12.0331   4556.94
 12.0752   4452.94
 12.1173   4379.58
 12.1595   4264.35
 12.2016   4187.07
 12.2437   4141.37
 12.2858   4118.66
 12.3279   4108.26
 12.3701   4148.89
 12.4122   4160.79
 12.4543   4172.15
 12.4964   4155.41
 12.5385   4134.05
 12.5807   4139.14
 12.6228   4178.53
 12.6649   4228.7
 12.6977   4270.65

File: MA2b-00005_om.chi
MA2b-00005.tif Azm= 0.00
2-Theta Angle (Degrees)
Intensity
       2500
 1.03978   7794.42
 1.0819   7587.31
 1.12402   7421.64
 1.16614   7307.11
 1.20826   7244.59
 1.25038   7177.5
 1.2925   7165.18
 1.33462   7183.97
 1.37674   7271.91
 1.41886   7367.63
 1.46098   7594.08
 1.5031   7795.22
 1.54522   7816.5
 1.58734   7759.41
 1.62946   7755.7
 1.67158   7757.42
 1.7137   7779.76
 1.75582   7815.83
 1.79794   7926.7
 1.84006   8066.85
 1.88218   8237.39
 1.9243   8439.84
 1.96642   8681.17
 2.00854   8907.34
 2.05066   9178.34
 2.09278   9941.86
 2.1349   21038.7
 2.17702   23051.2
 2.21914   13343.1
 2.26126   11171.5
 2.30338   10557
 2.3455   10738.4
 2.38762   10998.1
 2.42974   11301.8
 2.47186   11644.1
 2.51398   12001.3
 2.5561   12304.4
 2.59822   12557.1
 2.64034   12762.8
 2.68246   12851.9
 2.72458   12947.3
 2.7667   12910.7
 2.80882   12857.9
 2.85094   12686.5
 2.89306   12551.9
 2.93518   12388.5
 2.9773   12197.8
 3.01942   11969
 3.06154   11728.3
 3.10366   11503.5
 3.14578   11295.4
 3.1879   11148.4
 3.23002   11012.1
 3.27214   10914.6
 3.31426   10844.5
 3.35638   10785.9
 3.3985   10813.6
 3.44062   10814.2
 3.48274   10801.7
 3.52486   10815.7
 3.56698   10822.7
 3.6091   10789.8
 3.65122   10709.9
 3.69334   10684.8
 3.73546   10375.6
 3.77758   9917.76
 3.8197   9672.69
 3.86182   9439.14
 3.90394   9169.81
 3.94606   8890.64
 3.98818   8700.88
 4.0303   8520.62
 4.07242   8286.54
 4.11454   8219.2
 4.15666   8080.55
 4.19878   7924.74
 4.2409   8031.89
 4.28302   9208.16
 4.32514   9166.58
 4.36726   8493.77
 4.40938   7870.87
 4.4515   7592.23
 4.49362   7453.68
 4.53574   7151.17
 4.57786   6991.48
 4.61998   6831.62
 4.6621   6746.46
 4.70422   6684.56
 4.74634   6945.21
 4.78846   7805.88
 4.83058   9435.07
 4.8727   7826.7
 4.91482   7626.31
 4.95694   8647.24
 4.99906   9903.42
 5.04118   7591.78
 5.0833   7029.76
 5.12542   8782.61
 5.16754   8759.61
 5.20966   6389.29
 5.25178   6036.93
 5.2939   5930.92
 5.33602   5876.43
 5.37814   5856.08
 5.42026   5901.82
 5.46238   6041.58
 5.5045   6654.1
 5.54662   9548.41
 5.58874   10050.8
 5.63086   7651.02
 5.67298   6537.97
 5.7151   6139.19
 5.75722   6153.61
 5.79934   6099.94
 5.84146   6192.7
 5.88358   6678.75
 5.9257   8507.13
 5.96782   9779.65
 6.00994   8376.29
 6.05206   6755.21
 6.09418   6127.71
 6.1363   5985.81
 6.17842   5943.46
 6.22054   5920.33
 6.26266   5948.11
 6.30478   5977.33
 6.3469   5988.92
 6.38902   6006.79
 6.43114   6051.1
 6.47326   6062.74
 6.51538   6124.57
 6.5575   6184.15
 6.59962   6231
 6.64174   6330.75
 6.68386   6486.53
 6.72598   6546.43
 6.7681   6675.42
 6.81022   6812.95
 6.85234   6955.29
 6.89446   7472.39
 6.93658   8291.81
 6.9787   8195.67
 7.02082   7820.41
 7.06294   7594.39
 7.10506   7011.27
 7.14718   6799.8
 7.1893   6726.63
 7.23142   6689.05
 7.27354   6737.77
 7.31566   6745.62
 7.35778   6870.35
 7.3999   7031.98
 7.44202   7284.93
 7.48414   7410.54
 7.52626   7295.11
 7.56838   7179.5
 7.6105   6909.96
 7.65262   6425.4
 7.69474   6179.42
 7.73686   6058.75
 7.77898   5931.24
 7.8211   5859.8
 7.86322   5795.13
 7.90534   5699.64
 7.94746   5684.44
 7.98958   5619.24
 8.0317   5567.43
 8.07382   5613.76
 8.11594   5784.77
 8.15806   5852.5
 8.20018   6169.37
 8.2423   6910.28
 8.28442   7485.67
 8.32654   6745.76
 8.36866   5944.59
 8.41078   7099.31
 8.4529   5880.94
 8.49502   6082.2
 8.53714   6642.28
 8.57926   7025.1
 8.62138   6563.71
 8.6635   5922.79
 8.70562   5587.97
 8.74774   5411.32
 8.78986   5299.41
 8.83198   5210.38
 8.8741   5074.25
 8.91622   5027.2
 8.95834   4986.76
 9.00046   4992.71
 9.04258   4963.32
 9.0847   4949.15
 9.12682   4990.44
 9.16894   5069.25
 9.21106   5204.73
 9.25318   5378.75
 9.2953   5603.72
 9.33742   5735.03
 9.37954   5583.54
 9.42166   5299.94
 9.46378   5175.85
 9.5059   5198.53
 9.54802   5226.34
 9.59014   5318.09
 9.63226   5386.74
 9.67438   5435.26
 9.7165   5349.68
 9.75862   5143.79
 9.80074   5223.07
 9.84286   7541.89
 9.88498   7087.76
 9.9271   5456.3
 9.96922   5392.22
 10.0113   5375.37
 10.0535   5278.48
 10.0956   5239.34
 10.1377   5252.34
 10.1798   5364.3
 10.2219   5575.01
 10.2641   5761.02
 10.3062   6085.01
 10.3483   5356.89
 10.3904   5209.98
 10.4325   5262.3
 10.4747   5383.9
 10.5168   5390.99
 10.5589   5276.17
 10.601   5140.37
 10.6431   5068.93
 10.6853   5043.52
 10.7274   5125.52
 10.7695   5165.66
 10.8116   5151.34
 10.8537   5092.79
 10.8959   4998.84
 10.938   4905.49
 10.9801   4843.31
 11.0222   4826.36
 11.0643   4839.16
 11.1065   4920.38
 11.1486   5001.81
 11.1907   4958.52
 11.2328   4875.1
 11.2749   4729.18
 11.3171   4663.83
 11.3592   4590.86
 11.4013   4558.98
 11.4434   4529.49
 11.4855   4505.77
 11.5277   4480.01
 11.5698   4437.38
 11.6119   4437.9
 11.654   4407.26
 11.6961   4378.76
 11.7383   4361.61
 11.7804   4374.72
 11.8225   4388.89
 11.8646   4480.47
 11.9067   4723.92
 11.9489   4617.02
 11.991   4627.68
 12.0331   4549.28
 12.0752   4444.03
 12.1173   4375.13
 12.1595   4259.58
 12.2016   4182.72
 12.2437   4136.9
 12.2858   4116.02
 12.3279   4105.52
 12.3701   4145.55
 12.4122   4156.42
 12.4543   4169.12
 12.4964   4153.36
 12.5385   4123.12
 12.5807   4130.43
 12.6228   4173.84
 12.6649   4225.8
 12.6977   4267.17

File: MA2b-00005_spotsmasked.chi
MA2b-00005.tif Azm= 0.00
2-Theta Angle (Degrees)
Intensity
       2500
 1.03978   7794.42
 1.0819   7587.31
 1.12402   7421.64
 1.16614   7307.11
 1.20826   7248.68
 1.25038   7177.5
 1.2925   7169.4
 1.33462   7183.97
 1.37674   7268.03
 1.41886   7367.63
 1.46098   7594.08
 1.5031   7798.4
 1.54522   7826.38
 1.58734   7766.32
 1.62946   7762.52
 1.67158   7760.14
 1.7137   7779.76
 1.75582   7812.36
 1.79794   7931.61
 1.84006   8064.34
 1.88218   8237.12
 1.9243   8439.84
 1.96642   8681.17
 2.00854   8905.04
 2.05066   9176.02
 2.09278   9941.86
 2.1349   21038.7
 2.17702   23051.2
 2.21914   13343.1
 2.26126   11175.4
 2.30338   10558.9
 2.3455   10738.4
 2.38762   10994.7
 2.42974   11301.8
 2.47186   11644.3
 2.51398   12001.3
 2.5561   12304.4
 2.59822   12551.7
 2.64034   12773
 2.68246   12850.2
 2.72458   12945.3
 2.7667   12911.8
 2.80882   12857.9
 2.85094   12686.4
 2.89306   12555.6
 2.93518   12390.3
 2.9773   12197.8
 3.01942   11968.9
 3.06154   11728.3
 3.10366   11503.5
 3.14578   11295.4
 3.1879   11148.4
 3.23002   11012.1
 3.27214   10914.1
 3.31426   10844.5
 3.35638   10785.9
 3.3985   10813.6
 3.44062   10814.2
 3.48274   10801.7
 3.52486   10815.7
 3.56698   10822.7
 3.6091   10794.5
 3.65122   10709.9
 3.69334   10684.8
 3.73546   10375.6
 3.77758   9917.76
 3.8197   9672.69
 3.86182   9439.14
 3.90394   9169.81
 3.94606   8890.64
 3.98818   8700.88
 4.0303   8520.62
 4.07242   8286.54
 4.11454   8219.2
 4.15666   8080.55
 4.19878   7924.74
 4.2409   8031.89
 4.28302   9221.99
 4.32514   9166.58
 4.36726   8493.77
 4.40938   7875.16
 4.4515   7592.23
 4.49362   7453.68
 4.53574   7151.17
 4.57786   6991.48
 4.61998   6831.62
 4.6621   6746.46
 4.70422   6684.56
 4.74634   6945.21
 4.78846   7805.88
 4.83058   9435.07
 4.8727   7826.7
 4.91482   7626.31
 4.95694   8647.24
 4.99906   9905.95
 5.04118   7591.78
 5.0833   7075.22
 5.12542   21221.3
 5.16754   19427.2
 5.20966   6508.55
 5.25178   6036.93
 5.2939   5930.92
 5.33602   5877.46
 5.37814   5857.21
 5.42026   5902.87
 5.46238   6039.74
 5.5045   6656.56
 5.54662   9548.41
 5.58874   10050.8
 5.63086   7652.92
 5.67298   6537.97
 5.7151   6141.26
 5.75722   6153.63
 5.79934   6100.86
 5.84146   6191.86
 5.88358   6678.75
 5.9257   10922.5
 5.96782   10803.9
 6.00994   8380.24
 6.05206   6755.21
 6.09418   6127.71
 6.1363   5985.81
 6.17842   5942.09
 6.22054   5920.33
 6.26266   5949.5
 6.30478   5980.35
 6.3469   5988.92
 6.38902   6006.79
 6.43114   6051.1
 6.47326   6062.74
 6.51538   6126.33
 6.5575   6186.92
 6.59962   6231
 6.64174   6330.75
 6.68386   6486.53
 6.72598   6546.43
 6.7681   6675.42
 6.81022   6819.07
 6.85234   6955.29
 6.89446   7472.39
 6.93658   8291.81
 6.9787   8195.67
 7.02082   7820.41
 7.06294   7604.57
 7.10506   7011.27
 7.14718   6799.8
 7.1893   6726.63
 7.23142   6689.05
 7.27354   6737.77
 7.31566   6748.12
 7.35778   6871.52
 7.3999   7032.99
 7.44202   7286.75
 7.48414   7410.54
 7.52626   7295.11
 7.56838   7179.5
 7.6105   6909.96
 7.65262   6425.4
 7.69474   6182.74
 7.73686   6060.24
 7.77898   5931.24
 7.8211   5859.8
 7.86322   5795.13
 7.90534   5699.64
 7.94746   5685.88
 7.98958   5622.16
 8.0317   5567.43
 8.07382   5615.35
 8.11594   5786.18
 8.15806   5853.84
 8.20018   6169.37
 8.2423   6910.28
 8.28442   7488.33
 8.32654   6746.97
 8.36866   5944.59
 8.41078   8103.97
 8.4529   5880.94
 8.49502   6084.25
 8.53714   6646.66
 8.57926   7026.87
 8.62138   6563.71
 8.6635   5923.76
 8.70562   5590.59
 8.74774   5412.05
 8.78986   5300.2
 8.83198   5211.82
 8.8741   5073.35
 8.91622   5026.55
 8.95834   4986.02
 9.00046   4994.55
 9.04258   4963.32
 9.0847   4950.38
 9.12682   4992.54
 9.16894   5072.51
 9.21106   5206.35
 9.25318   5379.77
 9.2953   5606.28
 9.33742   5736.52
 9.37954   5584.57
 9.42166   5300.26
 9.46378   5176.1
 9.5059   5199.06
 9.54802   5228.04
 9.59014   5318.7
 9.63226   5388.72
 9.67438   5444.48
 9.7165   5376.13
 9.75862   5155.36
 9.80074   5225.24
 9.84286   8223.11
 9.88498   8148.37
 9.9271   5457.27
 9.96922   5392.95
 10.0113   5375.45
 10.0535   5278.48
 10.0956   5240.66
 10.1377   5253.66
 10.1798   5366.78
 10.2219   5576.45
 10.2641   5777.31
 10.3062   8475.31
 10.3483   5356.89
 10.3904   5210.75
 10.4325   5262.3
 10.4747   5388.63
 10.5168   5391.91
 10.5589   5276.17
 10.601   5140.37
 10.6431   5068.93
 10.6853   5044.25
 10.7274   5127.33
 10.7695   5167.71
 10.8116   5153.09
 10.8537   5094.59
 10.8959   5000.03
 10.938   4905.93
 10.9801   4843.8
 11.0222   4827.33
 11.0643   4838.36
 11.1065   4920.47
 11.1486   5003.03
 11.1907   4958.21
 11.2328   4875.49
 11.2749   4729.87
 11.3171   4664.71
 11.3592   4589.71
 11.4013   4559.07
 11.4434   4527.94
 11.4855   4504.92
 11.5277   4480.05
 11.5698   4437.79
 11.6119   4438.02
 11.654   4407.21
 11.6961   4378.73
 11.7383   4363.14
 11.7804   4375.59
 11.8225   4389.67
 11.8646   4483.29
 11.9067   5099.94
 11.9489   4620.23
 11.991   4628.93
 12.0331   4551.73
 12.0752   4445.97
 12.1173   4374.73
 12.1595   4260.01
 12.2016   4184.84
 12.2437   4138.46
 12.2858   4116.43
 12.3279   4105.67
 12.3701   4146.94
 12.4122   4158.09
 12.4543   4169.12
 12.4964   4153.03
 12.5385   4124.95
 12.5807   4130.73
 12.6228   4175.68
 12.6649   4226.7
 12.6977   4268.49