Folder: XRDdatapipeline/docs/GuiliangJun25_tutorial_output/integrals (part 4)

File: MA2b-00002_base.chi
MA2b-00002.tif Azm= 0.00
2-Theta Angle (Degrees)
Intensity
       2500
 1.03978   7722.66
 1.0819   7516.48
 1.12402   7318.78
 1.16614   7218.58
 1.20826   7179.83
 1.25038   7086.71
 1.2925   7100.36
 1.33462   7166.89
 1.37674   7172.55
 1.41886   7299.37
 1.46098   7516.67
 1.5031   7719.52
 1.54522   7728.71
 1.58734   7697.78
 1.62946   7708.1
 1.67158   7694.88
 1.7137   7695.13
 1.75582   7719.52
 1.79794   7841.13
 1.84006   7990.98
 1.88218   8138.42
 1.9243   8379.86
 1.96642   8582.57
 2.00854   8781.94
 2.05066   9023.56
 2.09278   9513.48
 2.1349   13995.5
 2.17702   24541.9
 2.21914   15935.3
 2.26126   11898.5
 2.30338   10501.7
 2.3455   10646.2
 2.38762   10904.8
 2.42974   11223.4
 2.47186   11546.9
 2.51398   11862.4
 2.5561   12181.1
 2.59822   12457.4
 2.64034   12631.5
 2.68246   12767.3
 2.72458   12888.8
 2.7667   12833.3
 2.80882   12723.5
 2.85094   12600.1
 2.89306   12474.1
 2.93518   12292.4
 2.9773   12098
 3.01942   11869.1
 3.06154   11629
 3.10366   11379.1
 3.14578   11207.2
 3.1879   11059.5
 3.23002   10916.5
 3.27214   10812.1
 3.31426   10774.1
 3.35638   10690.7
 3.3985   10727.3
 3.44062   10736.7
 3.48274   10775.7
 3.52486   10740.8
 3.56698   10854.5
 3.6091   10864.8
 3.65122   10892.6
 3.69334   11211.8
 3.73546   11377.8
 3.77758   11621.5
 3.8197   12693.7
 3.86182   13717.9
 3.90394   17690.6
 3.94606   72832.9
 3.98818   54155.6
 4.0303   17593.7
 4.07242   12810.3
 4.11454   11415
 4.15666   10091.3
 4.19878   9582.76
 4.2409   9090.33
 4.28302   8867.61
 4.32514   9165.61
 4.36726   9094.46
 4.40938   8236.51
 4.4515   7752.79
 4.49362   7570.4
 4.53574   7102.05
 4.57786   6870.37
 4.61998   6728.63
 4.6621   6648.44
 4.70422   6610.17
 4.74634   7176.51
 4.78846   8555.09
 4.83058   8888.42
 4.8727   7115.41
 4.91482   7982.92
 4.95694   8461.2
 4.99906   8086.71
 5.04118   6714.04
 5.0833   6761.43
 5.12542   20590.6
 5.16754   19095.9
 5.20966   6382.25
 5.25178   5966.08
 5.2939   5861.61
 5.33602   5812.44
 5.37814   5863.33
 5.42026   5913.06
 5.46238   6141.15
 5.5045   7373.61
 5.54662   13059.3
 5.58874   13039.8
 5.63086   8698.2
 5.67298   6774.38
 5.7151   6090.8
 5.75722   6008.49
 5.79934   5912.3
 5.84146   5876.19
 5.88358   6145.51
 5.9257   9642.37
 5.96782   8590.42
 6.00994   6855.85
 6.05206   6202.37
 6.09418   5865.4
 6.1363   5804.99
 6.17842   5818.31
 6.22054   5784.88
 6.26266   5831.06
 6.30478   5875.18
 6.3469   5910.81
 6.38902   5943.84
 6.43114   6028.61
 6.47326   6142.37
 6.51538   6262.89
 6.5575   6363.86
 6.59962   6557.32
 6.64174   6788.1
 6.68386   7009.19
 6.72598   7153.63
 6.7681   7588.77
 6.81022   8195.14
 6.85234   14278.6
 6.89446   21697.7
 6.93658   9602.45
 6.9787   9278.65
 7.02082   8799.34
 7.06294   8163.71
 7.10506   7344.09
 7.14718   7064.9
 7.1893   6889.14
 7.23142   6798.76
 7.27354   6836.11
 7.31566   6774.63
 7.35778   6848.91
 7.3999   6910.13
 7.44202   6989.92
 7.48414   7166.65
 7.52626   7499.52
 7.56838   7738.74
 7.6105   7460.41
 7.65262   6647.81
 7.69474   6373.72
 7.73686   6307.7
 7.77898   6349.17
 7.8211   6420.43
 7.86322   6443.06
 7.90534   6779.94
 7.94746   25264.1
 7.98958   6819.42
 8.0317   6182.48
 8.07382   6231.01
 8.11594   6567.42
 8.15806   6597.75
 8.20018   7015.27
 8.2423   7591.45
 8.28442   6942.02
 8.32654   6036.08
 8.36866   5862.79
 8.41078   10747.9
 8.4529   6181.36
 8.49502   6372.94
 8.53714   6439.93
 8.57926   6228.19
 8.62138   5851.96
 8.6635   5646.16
 8.70562   5595.76
 8.74774   5574.76
 8.78986   5520.87
 8.83198   5512.52
 8.8741   6904.59
 8.91622   5101.99
 8.95834   5027.65
 9.00046   5024.22
 9.04258   4955.93
 9.0847   4922.57
 9.12682   4949.82
 9.16894   5008.64
 9.21106   5152.12
 9.25318   5433.37
 9.2953   5702.19
 9.33742   5713.52
 9.37954   5558.08
 9.42166   5347.46
 9.46378   5279.52
 9.5059   5324.55
 9.54802   5294.05
 9.59014   5331.47
 9.63226   5308.84
 9.67438   5273.56
 9.7165   6328.61
 9.75862   5159.27
 9.80074   5273.83
 9.84286   8475.82
 9.88498   8532.7
 9.9271   5567.62
 9.96922   5439.05
 10.0113   5372.71
 10.0535   5235
 10.0956   5178.01
 10.1377   5192.56
 10.1798   5235.38
 10.2219   5274.19
 10.2641   5464.42
 10.3062   8296.18
 10.3483   5272.17
 10.3904   5179.91
 10.4325   5176.22
 10.4747   5581.77
 10.5168   6066.39
 10.5589   5223.1
 10.601   5131.62
 10.6431   5071.82
 10.6853   5034.73
 10.7274   5083.94
 10.7695   5099.73
 10.8116   5064.22
 10.8537   5012.54
 10.8959   4939.97
 10.938   4862.34
 10.9801   4797.73
 11.0222   4787.37
 11.0643   4824.4
 11.1065   4950.11
 11.1486   5030.7
 11.1907   4910.37
 11.2328   4909.61
 11.2749   4754.94
 11.3171   4683.61
 11.3592   4602.14
 11.4013   4543.05
 11.4434   4519.05
 11.4855   4491.73
 11.5277   4464.29
 11.5698   4397.43
 11.6119   4384.24
 11.654   4362.43
 11.6961   4334.83
 11.7383   4319.2
 11.7804   4329.96
 11.8225   4354.08
 11.8646   4414.15
 11.9067   5020.86
 11.9489   4480.31
 11.991   4507.63
 12.0331   4493.52
 12.0752   4475.44
 12.1173   4447.17
 12.1595   4287.01
 12.2016   4154.31
 12.2437   4109.32
 12.2858   4091.23
 12.3279   4082.14
 12.3701   4107.08
 12.4122   4130.1
 12.4543   4154.83
 12.4964   4193.08
 12.5385   4173.49
 12.5807   4203.39
 12.6228   4248.64
 12.6649   4244.2
 12.6977   4216.09

File: MA2b-00002_om.chi
MA2b-00002.tif Azm= 0.00
2-Theta Angle (Degrees)
Intensity
       2500
 1.03978   7722.66
 1.0819   7520.82
 1.12402   7318.78
 1.16614   7218.58
 1.20826   7174.88
 1.25038   7086.71
 1.2925   7100.36
 1.33462   7142.89
 1.37674   7160.15
 1.41886   7281.4
 1.46098   7502.39
 1.5031   7710.23
 1.54522   7719.53
 1.58734   7688.83
 1.62946   7701.38
 1.67158   7678.98
 1.7137   7681.17
 1.75582   7719.52
 1.79794   7828.74
 1.84006   7986.96
 1.88218   8131.66
 1.9243   8368.9
 1.96642   8561.47
 2.00854   8774.09
 2.05066   9017.65
 2.09278   9507.41
 2.1349   13995.5
 2.17702   24541.9
 2.21914   15935.3
 2.26126   11892.9
 2.30338   10503.4
 2.3455   10642.4
 2.38762   10900.7
 2.42974   11216.4
 2.47186   11544.4
 2.51398   11857.6
 2.5561   12181.1
 2.59822   12451.1
 2.64034   12627
 2.68246   12739.5
 2.72458   12841.4
 2.7667   12809.4
 2.80882   12704.1
 2.85094   12569.3
 2.89306   12456
 2.93518   12277.8
 2.9773   12077.4
 3.01942   11860
 3.06154   11616.3
 3.10366   11368.7
 3.14578   11187
 3.1879   11044.6
 3.23002   10901
 3.27214   10797.1
 3.31426   10757.4
 3.35638   10675.4
 3.3985   10697.8
 3.44062   10713.7
 3.48274   10729.4
 3.52486   10680.1
 3.56698   10716.5
 3.6091   10694.9
 3.65122   10573
 3.69334   10530.1
 3.73546   10203.2
 3.77758   9828.36
 3.8197   9555.16
 3.86182   9291.56
 3.90394   9049.88
 3.94606   8758.99
 3.98818   8551.4
 4.0303   8382.86
 4.07242   8174.61
 4.11454   8127.77
 4.15666   7964.75
 4.19878   7815.54
 4.2409   7817.88
 4.28302   8193.19
 4.32514   8697.04
 4.36726   8903.92
 4.40938   8154.66
 4.4515   7738.43
 4.49362   7563.57
 4.53574   7099.19
 4.57786   6867.58
 4.61998   6728.63
 4.6621   6643.6
 4.70422   6610.17
 4.74634   7176.51
 4.78846   8552.1
 4.83058   8888.42
 4.8727   7115.41
 4.91482   7982.92
 4.95694   8456.95
 4.99906   8085.5
 5.04118   6714.04
 5.0833   6682.42
 5.12542   8572.75
 5.16754   8592.67
 5.20966   6249.06
 5.25178   5916.04
 5.2939   5838.43
 5.33602   5794.44
 5.37814   5807.78
 5.42026   5881.99
 5.46238   6125.81
 5.5045   7360.51
 5.54662   13059.3
 5.58874   12939.6
 5.63086   8640.5
 5.67298   6759.88
 5.7151   6078.02
 5.75722   5963.12
 5.79934   5890.32
 5.84146   5866.87
 5.88358   6125.87
 5.9257   7241.7
 5.96782   7569.07
 6.00994   6838.98
 6.05206   6183.91
 6.09418   5864.24
 6.1363   5804.99
 6.17842   5818.31
 6.22054   5784.88
 6.26266   5831.06
 6.30478   5858.9
 6.3469   5882.13
 6.38902   5904.77
 6.43114   5943.11
 6.47326   5966.14
 6.51538   6027.6
 6.5575   6102.66
 6.59962   6143.48
 6.64174   6225.94
 6.68386   6376.16
 6.72598   6440.34
 6.7681   6552.51
 6.81022   6675.69
 6.85234   6846.13
 6.89446   7222.88
 6.93658   7870.9
 6.9787   8069.97
 7.02082   8071.25
 7.06294   7656.41
 7.10506   6921.6
 7.14718   6691.29
 7.1893   6632.09
 7.23142   6577.52
 7.27354   6619.69
 7.31566   6654.03
 7.35778   6797.69
 7.3999   6894.32
 7.44202   6987.9
 7.48414   7166.65
 7.52626   7498.35
 7.56838   7724.7
 7.6105   7408.88
 7.65262   6494.81
 7.69474   6132.21
 7.73686   6007.18
 7.77898   5884.1
 7.8211   5800.03
 7.86322   5741.2
 7.90534   5639.38
 7.94746   5618.56
 7.98958   5544.85
 8.0317   5514.19
 8.07382   5667.34
 8.11594   6029.3
 8.15806   6155.92
 8.20018   6684.57
 8.2423   7300.76
 8.28442   6715.24
 8.32654   5852.03
 8.36866   5682.95
 8.41078   7086.21
 8.4529   6075.89
 8.49502   6304.66
 8.53714   6384.03
 8.57926   6191.02
 8.62138   5811.1
 8.6635   5598.15
 8.70562   5530.11
 8.74774   5503.1
 8.78986   5435.04
 8.83198   5308.82
 8.8741   5090.94
 8.91622   4982.15
 8.95834   4953.02
 9.00046   4965.85
 9.04258   4905.6
 9.0847   4880.4
 9.12682   4916.69
 9.16894   4981.89
 9.21106   5136.67
 9.25318   5424.3
 9.2953   5697.88
 9.33742   5707.68
 9.37954   5555.53
 9.42166   5345.34
 9.46378   5279.59
 9.5059   5316.42
 9.54802   5275.9
 9.59014   5306.91
 9.63226   5273.03
 9.67438   5176
 9.7165   5070.27
 9.75862   5027.94
 9.80074   5225.52
 9.84286   7622.25
 9.88498   7270.42
 9.9271   5566.73
 9.96922   5437.71
 10.0113   5370.74
 10.0535   5234.13
 10.0956   5175.52
 10.1377   5189.93
 10.1798   5230.3
 10.2219   5262.65
 10.2641   5451.04
 10.3062   5909.21
 10.3483   5241.76
 10.3904   5096.31
 10.4325   5090.86
 10.4747   5146.15
 10.5168   5173.67
 10.5589   5135.89
 10.601   5054.92
 10.6431   5014.47
 10.6853   4999.67
 10.7274   5058.54
 10.7695   5080.7
 10.8116   5057.25
 10.8537   5008.49
 10.8959   4937.24
 10.938   4859.67
 10.9801   4798.21
 11.0222   4787.31
 11.0643   4825.18
 11.1065   4950.12
 11.1486   5028.76
 11.1907   4908.3
 11.2328   4840.65
 11.2749   4754.25
 11.3171   4683.15
 11.3592   4602.05
 11.4013   4543.26
 11.4434   4517.85
 11.4855   4490.59
 11.5277   4461.51
 11.5698   4397.64
 11.6119   4382.34
 11.654   4361.54
 11.6961   4332.67
 11.7383   4317.62
 11.7804   4325.97
 11.8225   4349.87
 11.8646   4405.92
 11.9067   4604.07
 11.9489   4467.13
 11.991   4499.85
 12.0331   4485.59
 12.0752   4469.52
 12.1173   4444.48
 12.1595   4281.7
 12.2016   4150.29
 12.2437   4105.09
 12.2858   4088.33
 12.3279   4077.46
 12.3701   4103.61
 12.4122   4125.82
 12.4543   4151.59
 12.4964   4190.39
 12.5385   4165.72
 12.5807   4196.71
 12.6228   4245.68
 12.6649   4242.56
 12.6977   4213.7

File: MA2b-00002_spotsmasked.chi
MA2b-00002.tif Azm= 0.00
2-Theta Angle (Degrees)
Intensity
       2500
 1.03978   7722.66
 1.0819   7516.48
 1.12402   7318.78
 1.16614   7218.58
 1.20826   7179.83
 1.25038   7086.71
 1.2925   7100.36
 1.33462   7146.4
 1.37674   7156.51
 1.41886   7284.62
 1.46098   7505.64
 1.5031   7709.97
 1.54522   7715.9
 1.58734   7691.57
 1.62946   7704.4
 1.67158   7678.98
 1.7137   7681.17
 1.75582   7719.52
 1.79794   7831.02
 1.84006   7986.98
 1.88218   8132.45
 1.9243   8368.9
 1.96642   8561.47
 2.00854   8774.09
 2.05066   9019.78
 2.09278   9507.41
 2.1349   13995.5
 2.17702   24541.9
 2.21914   15935.3
 2.26126   11892.9
 2.30338   10497.5
 2.3455   10642.5
 2.38762   10900.7
 2.42974   11218.1
 2.47186   11542.3
 2.51398   11857.6
 2.5561   12181.1
 2.59822   12451.1
 2.64034   12629.1
 2.68246   12739.5
 2.72458   12841.4
 2.7667   12805.5
 2.80882   12700.9
 2.85094   12571
 2.89306   12456
 2.93518   12276.4
 2.9773   12077.4
 3.01942   11858.1
 3.06154   11615.3
 3.10366   11368.7
 3.14578   11190.5
 3.1879   11044.6
 3.23002   10901
 3.27214   10797.1
 3.31426   10757.4
 3.35638   10673.6
 3.3985   10699.7
 3.44062   10713.7
 3.48274   10731.7
 3.52486   10680.1
 3.56698   10716.5
 3.6091   10694.9
 3.65122   10573
 3.69334   10530.1
 3.73546   10203.2
 3.77758   9828.36
 3.8197   9555.16
 3.86182   9291.56
 3.90394   9049.88
 3.94606   8758.99
 3.98818   8551.4
 4.0303   8382.86
 4.07242   8174.61
 4.11454   8127.77
 4.15666   7964.75
 4.19878   7815.54
 4.2409   7817.88
 4.28302   8224.31
 4.32514   8697.04
 4.36726   8903.92
 4.40938   8154.66
 4.4515   7745.22
 4.49362   7563.57
 4.53574   7099.19
 4.57786   6870.37
 4.61998   6728.63
 4.6621   6643.6
 4.70422   6610.17
 4.74634   7176.51
 4.78846   8552.1
 4.83058   8888.42
 4.8727   7115.41
 4.91482   7982.92
 4.95694   8456.95
 4.99906   8086.71
 5.04118   6714.04
 5.0833   6761.43
 5.12542   20622.3
 5.16754   19095.9
 5.20966   6380.94
 5.25178   5919.47
 5.2939   5838.43
 5.33602   5796.67
 5.37814   5808.7
 5.42026   5884.81
 5.46238   6124.1
 5.5045   7361.83
 5.54662   13059.3
 5.58874   12939.6
 5.63086   8640.5
 5.67298   6758.8
 5.7151   6080.52
 5.75722   5966.91
 5.79934   5891.46
 5.84146   5866.04
 5.88358   6125.87
 5.9257   9638.57
 5.96782   8589.18
 6.00994   6840.97
 6.05206   6191
 6.09418   5864.24
 6.1363   5804.99
 6.17842   5818.31
 6.22054   5784.88
 6.26266   5831.06
 6.30478   5862.02
 6.3469   5882.13
 6.38902   5904.77
 6.43114   5944.92
 6.47326   5970.34
 6.51538   6027.6
 6.5575   6102.66
 6.59962   6143.48
 6.64174   6225.94
 6.68386   6376.16
 6.72598   6440.34
 6.7681   6552.51
 6.81022   6675.69
 6.85234   6846.13
 6.89446   7222.88
 6.93658   7870.9
 6.9787   8069.97
 7.02082   8071.25
 7.06294   7662.46
 7.10506   6921.6
 7.14718   6691.29
 7.1893   6632.09
 7.23142   6577.52
 7.27354   6619.69
 7.31566   6654.03
 7.35778   6799.83
 7.3999   6895.28
 7.44202   6987.9
 7.48414   7166.65
 7.52626   7499.52
 7.56838   7724.7
 7.6105   7408.88
 7.65262   6494.81
 7.69474   6136.7
 7.73686   6007.18
 7.77898   5884.1
 7.8211   5801.57
 7.86322   5741.2
 7.90534   5642.45
 7.94746   5621.73
 7.98958   5544.85
 8.0317   5515.58
 8.07382   5667.34
 8.11594   6029.3
 8.15806   6155.92
 8.20018   6685.86
 8.2423   7300.76
 8.28442   6715.24
 8.32654   5855.28
 8.36866   5685.42
 8.41078   8556.98
 8.4529   6077.03
 8.49502   6304.66
 8.53714   6385.79
 8.57926   6191.02
 8.62138   5812.03
 8.6635   5600.79
 8.70562   5531.72
 8.74774   5503.1
 8.78986   5436.54
 8.83198   5310.5
 8.8741   5097.54
 8.91622   4982.06
 8.95834   4953.63
 9.00046   4966.41
 9.04258   4906.16
 9.0847   4880.96
 9.12682   4917.27
 9.16894   4984.06
 9.21106   5138.9
 9.25318   5427.23
 9.2953   5699.17
 9.33742   5709.74
 9.37954   5556.96
 9.42166   5345.32
 9.46378   5279.12
 9.5059   5316.97
 9.54802   5275.84
 9.59014   5307.98
 9.63226   5273.79
 9.67438   5177.24
 9.7165   5070.3
 9.75862   5030.5
 9.80074   5226.19
 9.84286   8213.04
 9.88498   8154.41
 9.9271   5566.73
 9.96922   5439.05
 10.0113   5372.71
 10.0535   5235
 10.0956   5177.36
 10.1377   5192.14
 10.1798   5234.77
 10.2219   5264.73
 10.2641   5464.42
 10.3062   8294.85
 10.3483   5243.21
 10.3904   5097.15
 10.4325   5090.86
 10.4747   5149.22
 10.5168   5175.98
 10.5589   5135.89
 10.601   5055.66
 10.6431   5015.81
 10.6853   5001.4
 10.7274   5059.74
 10.7695   5083.28
 10.8116   5059
 10.8537   5009.65
 10.8959   4939.42
 10.938   4861.29
 10.9801   4797.73
 11.0222   4787.37
 11.0643   4825.66
 11.1065   4950.11
 11.1486   5029.31
 11.1907   4910.08
 11.2328   4840.65
 11.2749   4754.94
 11.3171   4682.4
 11.3592   4601.83
 11.4013   4541.72
 11.4434   4517.05
 11.4855   4491.37
 11.5277   4463.06
 11.5698   4397.24
 11.6119   4382.33
 11.654   4361.99
 11.6961   4333.52
 11.7383   4318.06
 11.7804   4325.57
 11.8225   4350.27
 11.8646   4409.9
 11.9067   4972.94
 11.9489   4468.57
 11.991   4501.19
 12.0331   4486.74
 12.0752   4469.06
 12.1173   4444.48
 12.1595   4282.91
 12.2016   4152.2
 12.2437   4105.09
 12.2858   4089.35
 12.3279   4079.48
 12.3701   4103.85
 12.4122   4127.22
 12.4543   4152.59
 12.4964   4191.89
 12.5385   4166.79
 12.5807   4196.84
 12.6228   4245.95
 12.6649   4242.74
 12.6977   4214.6

File: MA2b-00003_arcsmasked.chi
MA2b-00003.tif Azm= 0.00
2-Theta Angle (Degrees)
Intensity
       2500
 1.03978   7726.33
 1.0819   7542.99
 1.12402   7383.34
 1.16614   7254.35
 1.20826   7195.94
 1.25038   7147.47
 1.2925   7134.82
 1.33462   7185.33
 1.37674   7238.44
 1.41886   7336.19
 1.46098   7556.75
 1.5031   7759.56
 1.54522   7818.15
 1.58734   7762.52
 1.62946   7730.42
 1.67158   7733.93
 1.7137   7777.73
 1.75582   7794.05
 1.79794   7903.87
 1.84006   8037.74
 1.88218   8222.69
 1.9243   8420.34
 1.96642   8661.21
 2.00854   8866.78
 2.05066   9114.32
 2.09278   9656.92
 2.1349   16036.2
 2.17702   24511.6
 2.21914   15039
 2.26126   11630.1
 2.30338   10532.5
 2.3455   10703.9
 2.38762   10934.3
 2.42974   11263.6
 2.47186   11589.7
 2.51398   11941.1
 2.5561   12222.9
 2.59822   12502.2
 2.64034   12711.5
 2.68246   12841.7
 2.72458   12933.4
 2.7667   12882.3
 2.80882   12782.7
 2.85094   12689.3
 2.89306   12512.7
 2.93518   12346.8
 2.9773   12167.4
 3.01942   11942.6
 3.06154   11675.7
 3.10366   11435.2
 3.14578   11251.2
 3.1879   11098
 3.23002   10956.8
 3.27214   10859.4
 3.31426   10802.5
 3.35638   10737.8
 3.3985   10778.6
 3.44062   10803.6
 3.48274   10821.9
 3.52486   10820.4
 3.56698   10909.3
 3.6091   10913.5
 3.65122   10965.3
 3.69334   11268.4
 3.73546   11420.6
 3.77758   11640.8
 3.8197   12761
 3.86182   13726
 3.90394   17741.1
 3.94606   72764.1
 3.98818   53519.4
 4.0303   17256.7
 4.07242   12820.4
 4.11454   11438.5
 4.15666   10133
 4.19878   9598.48
 4.2409   9161.43
 4.28302   9121.32
 4.32514   9360.33
 4.36726   9017.87
 4.40938   8167.31
 4.4515   7699.73
 4.49362   7528.39
 4.53574   7115.41
 4.57786   6924.99
 4.61998   6773.14
 4.6621   6665.16
 4.70422   6635.81
 4.74634   7095.59
 4.78846   8324.43
 4.83058   9141.91
 4.8727   7337.05
 4.91482   7864.08
 4.95694   8522.38
 4.99906   8643.35
 5.04118   6989.95
 5.0833   6820.74
 5.12542   8779.24
 5.16754   8594.52
 5.20966   6325.71
 5.25178   6028.77
 5.2939   5921.84
 5.33602   5858.29
 5.37814   5900.55
 5.42026   5946.72
 5.46238   6152.13
 5.5045   7183.38
 5.54662   11910.5
 5.58874   12137.3
 5.63086   8462.73
 5.67298   6755.38
 5.7151   6134.67
 5.75722   6104.31
 5.79934   6004.08
 5.84146   5992.36
 5.88358   6321.4
 5.9257   7771.74
 5.96782   8241.69
 6.00994   7306.84
 6.05206   6394.58
 6.09418   5960.92
 6.1363   5879.89
 6.17842   5874.47
 6.22054   5851.84
 6.26266   5877.77
 6.30478   5929.37
 6.3469   5959.16
 6.38902   5990.95
 6.43114   6086.09
 6.47326   6197.93
 6.51538   6328.6
 6.5575   6426.2
 6.59962   6596.91
 6.64174   6850.76
 6.68386   7070.07
 6.72598   7239.77
 6.7681   7683.43
 6.81022   8361.4
 6.85234   16577.6
 6.89446   24684.7
 6.93658   9898.65
 6.9787   9387
 7.02082   8759.59
 7.06294   8184.11
 7.10506   7420.21
 7.14718   7135.94
 7.1893   6951.64
 7.23142   6848.57
 7.27354   6895.26
 7.31566   6836.25
 7.35778   6900.55
 7.3999   6962.3
 7.44202   7085.73
 7.48414   7266.62
 7.52626   7462.69
 7.56838   7566.69
 7.6105   7298.38
 7.65262   6631.8
 7.69474   6404.89
 7.73686   6346.87
 7.77898   6392.29
 7.8211   6456.68
 7.86322   6473.31
 7.90534   6853.22
 7.94746   26097.4
 7.98958   6926.29
 8.0317   6208.7
 8.07382   6230.68
 8.11594   6490.04
 8.15806   6489.07
 8.20018   6859.79
 8.2423   7525.76
 8.28442   7245.69
 8.32654   6301.92
 8.36866   5953.75
 8.41078   9758.36
 8.4529   6112.31
 8.49502   6334.62
 8.53714   6548.47
 8.57926   6522.12
 8.62138   6097.15
 8.6635   5761.16
 8.70562   5640.75
 8.74774   5577.44
 8.78986   5493.29
 8.83198   5498.22
 8.8741   6829.97
 8.91622   5120.87
 8.95834   5061.24
 9.00046   5037.95
 9.04258   4980.01
 9.0847   4967.23
 9.12682   4992.74
 9.16894   5048.72
 9.21106   5180.56
 9.25318   5433.24
 9.2953   5686.79
 9.33742   5734.38
 9.37954   5585.82
 9.42166   5345.79
 9.46378   5265.73
 9.5059   5295.37
 9.54802   5307.52
 9.59014   5355.95
 9.63226   5363.64
 9.67438   5373.3
 9.7165   6426.09
 9.75862   5201.18
 9.80074   5282.1
 9.84286   7942.57
 9.88498   7918.78
 9.9271   5546.31
 9.96922   5451.96
 10.0113   5392.4
 10.0535   5272.55
 10.0956   5203.51
 10.1377   5233.12
 10.1798   5292.82
 10.2219   5383.88
 10.2641   5560.92
 10.3062   5979.72
 10.3483   5315.36
 10.3904   5223.11
 10.4325   5250.8
 10.4747   5560.31
 10.5168   5984.23
 10.5589   5275.18
 10.601   5167.77
 10.6431   5098.45
 10.6853   5060.32
 10.7274   5118.32
 10.7695   5142.46
 10.8116   5110.07
 10.8537   5053.33
 10.8959   4980.28
 10.938   4895.14
 10.9801   4837.93
 11.0222   4818.67
 11.0643   4838.72
 11.1065   4958.22
 11.1486   5039.37
 11.1907   4938.37
 11.2328   4943.17
 11.2749   4751.68
 11.3171   4688.54
 11.3592   4610.96
 11.4013   4565.87
 11.4434   4531.62
 11.4855   4514.47
 11.5277   4482.3
 11.5698   4426.63
 11.6119   4417.48
 11.654   4389.65
 11.6961   4355.5
 11.7383   4357.42
 11.7804   4354.37
 11.8225   4379.32
 11.8646   4446.06
 11.9067   4721.45
 11.9489   4529.38
 11.991   4561.56
 12.0331   4525.12
 12.0752   4479.39
 12.1173   4429.07
 12.1595   4288.8
 12.2016   4184.15
 12.2437   4139.32
 12.2858   4101.68
 12.3279   4103.72
 12.3701   4136.19
 12.4122   4151.84
 12.4543   4175.98
 12.4964   4185.21
 12.5385   4176.52
 12.5807   4195.11
 12.6228   4235.4
 12.6649   4267.22
 12.6977   4241.31