Folder: XRDdatapipeline/docs/GuiliangJun25_tutorial_output/integrals (part 3)

File: MA2-00003_spotsmasked.chi
MA2-00003.tif Azm= 0.00
2-Theta Angle (Degrees)
Intensity
       2500
 1.03978   7774.04
 1.0819   7571.28
 1.12402   7424.02
 1.16614   7294.68
 1.20826   7231.66
 1.25038   7184.47
 1.2925   7174.46
 1.33462   7207.72
 1.37674   7289.39
 1.41886   7361.05
 1.46098   7601.53
 1.5031   7773.67
 1.54522   7799.37
 1.58734   7746.98
 1.62946   7712.78
 1.67158   7750.66
 1.7137   7734.3
 1.75582   7774.27
 1.79794   7884.73
 1.84006   8048
 1.88218   8179.4
 1.9243   8433.47
 1.96642   8627.24
 2.00854   8798.01
 2.05066   9004.93
 2.09278   9293.93
 2.1349   9528.48
 2.17702   10129.9
 2.21914   15085.3
 2.26126   24275.7
 2.30338   11272.3
 2.3455   10876.2
 2.38762   11073.7
 2.42974   11381.3
 2.47186   11751.5
 2.51398   12070.9
 2.5561   12373.6
 2.59822   12676.5
 2.64034   12855.9
 2.68246   12992.4
 2.72458   13085.1
 2.7667   13054
 2.80882   12972.6
 2.85094   12833.3
 2.89306   12665.1
 2.93518   12515.6
 2.9773   12277.8
 3.01942   12041.3
 3.06154   11789.9
 3.10366   11544.8
 3.14578   11391.7
 3.1879   11227.6
 3.23002   11058.1
 3.27214   10949.3
 3.31426   10900.7
 3.35638   10799.2
 3.3985   10811.1
 3.44062   10813
 3.48274   10828.1
 3.52486   10774.6
 3.56698   10766.9
 3.6091   10745.7
 3.65122   10638.7
 3.69334   10603.3
 3.73546   10270.6
 3.77758   9873.09
 3.8197   9602.87
 3.86182   9437.88
 3.90394   9095.01
 3.94606   8822.89
 3.98818   8597.24
 4.0303   8444.02
 4.07242   8210.64
 4.11454   8139.29
 4.15666   8002.86
 4.19878   7807.46
 4.2409   7792.2
 4.28302   7822.75
 4.32514   7700.39
 4.36726   7644.42
 4.40938   7596.69
 4.4515   7875.05
 4.49362   10145.7
 4.53574   7987.56
 4.57786   7003.54
 4.61998   6799.72
 4.6621   6746.37
 4.70422   7867.29
 4.74634   9242.45
 4.78846   6750.19
 4.83058   6483.14
 4.8727   7939.9
 4.91482   12100.1
 4.95694   6858.29
 4.99906   6205.86
 5.04118   6112.28
 5.0833   6622.47
 5.12542   20006.5
 5.16754   19581.9
 5.20966   6381.03
 5.25178   5921.25
 5.2939   5820.9
 5.33602   5771.23
 5.37814   5762.01
 5.42026   5821.97
 5.46238   6077.33
 5.5045   8287.94
 5.54662   27433.7
 5.58874   12322.3
 5.63086   6419.4
 5.67298   5860.91
 5.7151   5720.01
 5.75722   5774.08
 5.79934   5726.2
 5.84146   5659.88
 5.88358   5792.26
 5.9257   8871.4
 5.96782   7793.66
 6.00994   6226.16
 6.05206   5800.55
 6.09418   5728.96
 6.1363   5744.06
 6.17842   5782.67
 6.22054   5784.71
 6.26266   5834.3
 6.30478   5887.22
 6.3469   5899.34
 6.38902   5921.47
 6.43114   5970.52
 6.47326   5969.04
 6.51538   6028.5
 6.5575   6112.62
 6.59962   6146.18
 6.64174   6228.05
 6.68386   6390.17
 6.72598   6478.51
 6.7681   6565.24
 6.81022   6591.78
 6.85234   6653.16
 6.89446   6688.26
 6.93658   6909.54
 6.9787   7253.85
 7.02082   9297.13
 7.06294   8203.93
 7.10506   6856.06
 7.14718   6646.98
 7.1893   6555.52
 7.23142   6514.66
 7.27354   6562.24
 7.31566   6511.44
 7.35778   6548.23
 7.3999   6488.54
 7.44202   6434.24
 7.48414   6465.12
 7.52626   6635.02
 7.56838   7927.15
 7.6105   11914
 7.65262   7732.53
 7.69474   6299.9
 7.73686   6061.18
 7.77898   5885.63
 7.8211   5816.77
 7.86322   5731.37
 7.90534   5655.83
 7.94746   5638.07
 7.98958   5626.55
 8.0317   5955.99
 8.07382   9360.45
 8.11594   9225.06
 8.15806   6246.57
 8.20018   5527.82
 8.2423   5380.2
 8.28442   5316.86
 8.32654   5375.37
 8.36866   6201.28
 8.41078   9971.1
 8.4529   5869.25
 8.49502   5286.01
 8.53714   5150.05
 8.57926   5096.3
 8.62138   5051.26
 8.6635   5026.79
 8.70562   5006.38
 8.74774   5007.18
 8.78986   5244.26
 8.83198   6226.63
 8.8741   5834.88
 8.91622   5082.41
 8.95834   5091.77
 9.00046   5459.36
 9.04258   5280
 9.0847   4906.53
 9.12682   4869.07
 9.16894   4921.17
 9.21106   5189.53
 9.25318   6613.5
 9.2953   6091.25
 9.33742   5217.05
 9.37954   5326.7
 9.42166   5376.07
 9.46378   6214.2
 9.5059   6127.9
 9.54802   5197.89
 9.59014   4977.92
 9.63226   4946.12
 9.67438   4957.18
 9.7165   5018.93
 9.75862   5260.72
 9.80074   6654.57
 9.84286   9269.88
 9.88498   8413.78
 9.9271   5235.92
 9.96922   5102.83
 10.0113   5101.66
 10.0535   5160.84
 10.0956   5194.88
 10.1377   5096.36
 10.1798   5068.9
 10.2219   5073.19
 10.2641   5307.05
 10.3062   8268.85
 10.3483   5219.45
 10.3904   5062.65
 10.4325   5028.29
 10.4747   5042.24
 10.5168   5073.84
 10.5589   5121.41
 10.601   4981.67
 10.6431   4954.84
 10.6853   5039.1
 10.7274   5363.92
 10.7695   5094.51
 10.8116   4917.96
 10.8537   4853.18
 10.8959   4797.92
 10.938   4760.82
 10.9801   4741.82
 11.0222   4756.2
 11.0643   4889.95
 11.1065   5580
 11.1486   5338.23
 11.1907   4784.85
 11.2328   4715.8
 11.2749   4691.82
 11.3171   4613.05
 11.3592   4526.87
 11.4013   4526.69
 11.4434   4580.6
 11.4855   4793.87
 11.5277   4975.45
 11.5698   4579.94
 11.6119   4438.7
 11.654   4384.74
 11.6961   4352.47
 11.7383   4324.41
 11.7804   4304.11
 11.8225   4295.4
 11.8646   4327.9
 11.9067   4869.49
 11.9489   4384.97
 11.991   4607.07
 12.0331   4508.95
 12.0752   4543.35
 12.1173   5201.76
 12.1595   4794.85
 12.2016   4259.87
 12.2437   4131.1
 12.2858   4091.08
 12.3279   4080.15
 12.3701   4212.66
 12.4122   4378.14
 12.4543   4629.91
 12.4964   4616.98
 12.5385   4200.25
 12.5807   4036.01
 12.6228   3990.77
 12.6649   4072.63
 12.6977   4412.18

File: MA2b-00001_arcsmasked.chi
MA2b-00001.tif Azm= 0.00
2-Theta Angle (Degrees)
Intensity
       2500
 1.03978   7636.89
 1.0819   7432.07
 1.12402   7275.57
 1.16614   7156.25
 1.20826   7085.51
 1.25038   7033.53
 1.2925   7041.63
 1.33462   7103.4
 1.37674   7136.91
 1.41886   7270.9
 1.46098   7488.01
 1.5031   7680.62
 1.54522   7681.42
 1.58734   7645.99
 1.62946   7640.23
 1.67158   7672.89
 1.7137   7668.78
 1.75582   7692.17
 1.79794   7794.26
 1.84006   7925.05
 1.88218   8123.02
 1.9243   8327.95
 1.96642   8526.62
 2.00854   8753.52
 2.05066   8974.23
 2.09278   9395.66
 2.1349   12488.6
 2.17702   23916.8
 2.21914   16858.7
 2.26126   12221.6
 2.30338   10482
 2.3455   10575.5
 2.38762   10819.2
 2.42974   11153.2
 2.47186   11464.4
 2.51398   11792.4
 2.5561   12094.1
 2.59822   12379.8
 2.64034   12578.2
 2.68246   12708.1
 2.72458   12808.6
 2.7667   12755.8
 2.80882   12654.7
 2.85094   12544.4
 2.89306   12382.8
 2.93518   12212.1
 2.9773   12020
 3.01942   11792.4
 3.06154   11549
 3.10366   11293.2
 3.14578   11128.9
 3.1879   11003.4
 3.23002   10838.3
 3.27214   10760.5
 3.31426   10708.1
 3.35638   10624.5
 3.3985   10635.8
 3.44062   10680.1
 3.48274   10686.8
 3.52486   10696.5
 3.56698   10771.3
 3.6091   10803
 3.65122   10816.8
 3.69334   11144.6
 3.73546   11315.9
 3.77758   11569.8
 3.8197   12635.9
 3.86182   13667.3
 3.90394   17597
 3.94606   73320.1
 3.98818   52953
 4.0303   17454.8
 4.07242   12755.2
 4.11454   11347.8
 4.15666   10037.6
 4.19878   9509.18
 4.2409   9023.95
 4.28302   8651.25
 4.32514   8924.07
 4.36726   9086.33
 4.40938   8298.51
 4.4515   7785.05
 4.49362   7581.94
 4.53574   7062.72
 4.57786   6845.24
 4.61998   6670.29
 4.6621   6596.16
 4.70422   6607.02
 4.74634   7275.04
 4.78846   8729
 4.83058   8568.99
 4.8727   6914.14
 4.91482   8118.33
 4.95694   8400.14
 4.99906   7666.89
 5.04118   6506.09
 5.0833   6624.41
 5.12542   8539.28
 5.16754   8500.93
 5.20966   6190.76
 5.25178   5916.37
 5.2939   5806.49
 5.33602   5762.55
 5.37814   5820.53
 5.42026   5868.6
 5.46238   6127.19
 5.5045   7456.04
 5.54662   14091.7
 5.58874   13777.5
 5.63086   8769.97
 5.67298   6691.94
 5.7151   5978.12
 5.75722   5926.99
 5.79934   5811.71
 5.84146   5758.74
 5.88358   5990.47
 5.9257   7008.82
 5.96782   7096.31
 6.00994   6509.39
 6.05206   6042.16
 6.09418   5786.38
 6.1363   5750.74
 6.17842   5759.45
 6.22054   5755.44
 6.26266   5772.77
 6.30478   5825.32
 6.3469   5861.18
 6.38902   5913.05
 6.43114   5977.98
 6.47326   6079.91
 6.51538   6207.88
 6.5575   6321.39
 6.59962   6502.23
 6.64174   6722.26
 6.68386   6950.09
 6.72598   7102.5
 6.7681   7512.24
 6.81022   8104.21
 6.85234   13433.5
 6.89446   19536
 6.93658   9382.81
 6.9787   9189.83
 7.02082   8857.92
 7.06294   8133.19
 7.10506   7279.7
 7.14718   6989.76
 7.1893   6806.31
 7.23142   6721.6
 7.27354   6765.32
 7.31566   6700.33
 7.35778   6793.14
 7.3999   6818.12
 7.44202   6869.13
 7.48414   7059
 7.52626   7510.82
 7.56838   7889.85
 7.6105   7631.52
 7.65262   6645.96
 7.69474   6350.78
 7.73686   6272.28
 7.77898   6315.88
 7.8211   6376.59
 7.86322   6409.16
 7.90534   6699.39
 7.94746   24426.5
 7.98958   6711.63
 8.0317   6140.21
 8.07382   6246.87
 8.11594   6672.16
 8.15806   6700.79
 8.20018   7139.24
 8.2423   7546.6
 8.28442   6652.9
 8.32654   5835.39
 8.36866   5796.28
 8.41078   9750.01
 8.4529   6208.61
 8.49502   6378.81
 8.53714   6298.94
 8.57926   5995.88
 8.62138   5639.26
 8.6635   5513.96
 8.70562   5549.23
 8.74774   5569.28
 8.78986   5543.16
 8.83198   5529.12
 8.8741   6804.45
 8.91622   5062.36
 8.95834   4994.43
 9.00046   4998.02
 9.04258   4920.46
 9.0847   4879.24
 9.12682   4901.13
 9.16894   4975.32
 9.21106   5097.47
 9.25318   5423.33
 9.2953   5709.86
 9.33742   5687.24
 9.37954   5533.4
 9.42166   5344.17
 9.46378   5298.43
 9.5059   5341.55
 9.54802   5292.78
 9.59014   5302.03
 9.63226   5248.07
 9.67438   5175.61
 9.7165   6229.75
 9.75862   5120.53
 9.80074   5272.26
 9.84286   7984.97
 9.88498   7938.14
 9.9271   5570.23
 9.96922   5418.7
 10.0113   5327.64
 10.0535   5188.77
 10.0956   5132.14
 10.1377   5156.66
 10.1798   5188.27
 10.2219   5189.41
 10.2641   5348.02
 10.3062   5851.59
 10.3483   5222.64
 10.3904   5123.87
 10.4325   5126.4
 10.4747   5740.72
 10.5168   5820.8
 10.5589   5159.06
 10.601   5091.23
 10.6431   5030.56
 10.6853   4994.57
 10.7274   5053.77
 10.7695   5054.94
 10.8116   5017.51
 10.8537   4969.16
 10.8959   4909.35
 10.938   4819.09
 10.9801   4759.04
 11.0222   4759.82
 11.0643   4801.01
 11.1065   4947.66
 11.1486   5017.07
 11.1907   4880.33
 11.2328   4871.57
 11.2749   4724.85
 11.3171   4667.77
 11.3592   4586.12
 11.4013   4527.19
 11.4434   4494.02
 11.4855   4483.38
 11.5277   4439.24
 11.5698   4363.78
 11.6119   4361.69
 11.654   4330.45
 11.6961   4301.52
 11.7383   4289.82
 11.7804   4302.16
 11.8225   4317.06
 11.8646   4377.23
 11.9067   4619.69
 11.9489   4421.7
 11.991   4459.84
 12.0331   4472.51
 12.0752   4476.15
 12.1173   4460.17
 12.1595   4290.32
 12.2016   4144.84
 12.2437   4082.27
 12.2858   4060.67
 12.3279   4054.44
 12.3701   4088.25
 12.4122   4104.27
 12.4543   4159.71
 12.4964   4184.34
 12.5385   4171.76
 12.5807   4196.07
 12.6228   4233.43
 12.6649   4210.73
 12.6977   4161.2

File: MA2b-00001_om.chi
MA2b-00001.tif Azm= 0.00
2-Theta Angle (Degrees)
Intensity
       2500
 1.03978   7636.89
 1.0819   7432.07
 1.12402   7275.57
 1.16614   7165.12
 1.20826   7085.51
 1.25038   7033.53
 1.2925   7041.63
 1.33462   7070.44
 1.37674   7125.81
 1.41886   7254
 1.46098   7475.38
 1.5031   7663.34
 1.54522   7667.95
 1.58734   7640.27
 1.62946   7631.02
 1.67158   7651.93
 1.7137   7651.65
 1.75582   7699.9
 1.79794   7781.6
 1.84006   7919.62
 1.88218   8114.38
 1.9243   8317.39
 1.96642   8512.78
 2.00854   8744.24
 2.05066   8963.48
 2.09278   9388.58
 2.1349   12488.6
 2.17702   23916.8
 2.21914   16858.7
 2.26126   12212.9
 2.30338   10477.1
 2.3455   10569.2
 2.38762   10814
 2.42974   11145.8
 2.47186   11464
 2.51398   11786.4
 2.5561   12092.5
 2.59822   12375.9
 2.64034   12572.2
 2.68246   12684.6
 2.72458   12765.3
 2.7667   12721.9
 2.80882   12631.2
 2.85094   12520.2
 2.89306   12363.8
 2.93518   12197
 2.9773   12002.2
 3.01942   11780.3
 3.06154   11537.4
 3.10366   11281.4
 3.14578   11111.1
 3.1879   10987.8
 3.23002   10823.8
 3.27214   10738.4
 3.31426   10690.9
 3.35638   10611.5
 3.3985   10606.6
 3.44062   10656
 3.48274   10630.8
 3.52486   10621.6
 3.56698   10633
 3.6091   10625.3
 3.65122   10485.8
 3.69334   10462.1
 3.73546   10181.5
 3.77758   9751.91
 3.8197   9465.25
 3.86182   9256.96
 3.90394   8933.11
 3.94606   8677.7
 3.98818   8493.76
 4.0303   8333.74
 4.07242   8113.26
 4.11454   8070.9
 4.15666   7911.6
 4.19878   7725.22
 4.2409   7765.79
 4.28302   7954.36
 4.32514   8476.8
 4.36726   8887.36
 4.40938   8237.73
 4.4515   7774.88
 4.49362   7578.75
 4.53574   7059.25
 4.57786   6845.24
 4.61998   6670.29
 4.6621   6593.68
 4.70422   6607.02
 4.74634   7275.04
 4.78846   8724.93
 4.83058   8568.99
 4.8727   6915.67
 4.91482   8116.76
 4.95694   8393.26
 4.99906   7664.78
 5.04118   6504.43
 5.0833   6624.41
 5.12542   8438.06
 5.16754   8500.93
 5.20966   6189.12
 5.25178   5872.63
 5.2939   5780.62
 5.33602   5743.44
 5.37814   5762.87
 5.42026   5840.71
 5.46238   6111.22
 5.5045   7444.18
 5.54662   14091.7
 5.58874   13687.1
 5.63086   8719.17
 5.67298   6677.92
 5.7151   5968.91
 5.75722   5888.87
 5.79934   5787.81
 5.84146   5750.25
 5.88358   5975.29
 5.9257   6934.31
 5.96782   7093.27
 6.00994   6499.96
 6.05206   6025.14
 6.09418   5786.79
 6.1363   5750.74
 6.17842   5759.45
 6.22054   5754.02
 6.26266   5772.77
 6.30478   5817.52
 6.3469   5845.98
 6.38902   5877.42
 6.43114   5902.06
 6.47326   5905.73
 6.51538   5965.97
 6.5575   6068.01
 6.59962   6097.67
 6.64174   6159.74
 6.68386   6326.15
 6.72598   6390.98
 6.7681   6491.44
 6.81022   6632.09
 6.85234   6769.96
 6.89446   7139.41
 6.93658   7694.86
 6.9787   8037.4
 7.02082   8138.06
 7.06294   7629.76
 7.10506   6855.35
 7.14718   6614.42
 7.1893   6540.6
 7.23142   6508.57
 7.27354   6545.92
 7.31566   6569.96
 7.35778   6737.2
 7.3999   6799.84
 7.44202   6868.12
 7.48414   7059
 7.52626   7508.2
 7.56838   7876.15
 7.6105   7574.68
 7.65262   6491.2
 7.69474   6123.84
 7.73686   5981.34
 7.77898   5840.57
 7.8211   5774.4
 7.86322   5712.27
 7.90534   5598.08
 7.94746   5566.3
 7.98958   5537.35
 8.0317   5484.13
 8.07382   5686.77
 8.11594   6131.81
 8.15806   6259.51
 8.20018   6814.8
 8.2423   7273.14
 8.28442   6415
 8.32654   5628.62
 8.36866   5617.38
 8.41078   7132.62
 8.4529   6105.56
 8.49502   6315.59
 8.53714   6248.37
 8.57926   5944.75
 8.62138   5596.74
 8.6635   5466.46
 8.70562   5493.14
 8.74774   5498.16
 8.78986   5461.87
 8.83198   5336.8
 8.8741   5079.38
 8.91622   4947.02
 8.95834   4922.29
 9.00046   4938.58
 9.04258   4870.75
 9.0847   4836.16
 9.12682   4866.42
 9.16894   4953.62
 9.21106   5086.85
 9.25318   5415.4
 9.2953   5704.28
 9.33742   5683.39
 9.37954   5530.8
 9.42166   5340.04
 9.46378   5293.53
 9.5059   5337.74
 9.54802   5274.71
 9.59014   5278.8
 9.63226   5211.76
 9.67438   5084.12
 9.7165   4991.8
 9.75862   4985.54
 9.80074   5228.54
 9.84286   7657.81
 9.88498   7266.53
 9.9271   5569.91
 9.96922   5417.97
 10.0113   5324.29
 10.0535   5185.23
 10.0956   5128.28
 10.1377   5155.13
 10.1798   5181.78
 10.2219   5179.01
 10.2641   5348.02
 10.3062   5829.31
 10.3483   5192.09
 10.3904   5042.75
 10.4325   5043.44
 10.4747   5084.02
 10.5168   5092.72
 10.5589   5080.78
 10.601   5023.14
 10.6431   4977.27
 10.6853   4966.15
 10.7274   5035.19
 10.7695   5038.31
 10.8116   5008.1
 10.8537   4964.22
 10.8959   4905.87
 10.938   4816.72
 10.9801   4758.53
 11.0222   4758.06
 11.0643   4799.66
 11.1065   4946.2
 11.1486   5016.49
 11.1907   4880.32
 11.2328   4808.21
 11.2749   4723.7
 11.3171   4665.58
 11.3592   4585.8
 11.4013   4527.3
 11.4434   4492.85
 11.4855   4483.32
 11.5277   4438.48
 11.5698   4361.96
 11.6119   4359.63
 11.654   4330.01
 11.6961   4300.41
 11.7383   4287.63
 11.7804   4298.42
 11.8225   4313.84
 11.8646   4370.22
 11.9067   4557.8
 11.9489   4410.01
 11.991   4451.77
 12.0331   4464.38
 12.0752   4471.09
 12.1173   4457.21
 12.1595   4286.93
 12.2016   4142.48
 12.2437   4079.7
 12.2858   4056.56
 12.3279   4051.13
 12.3701   4086.08
 12.4122   4101.4
 12.4543   4157.59
 12.4964   4182.76
 12.5385   4165.31
 12.5807   4186.32
 12.6228   4229.1
 12.6649   4209.46
 12.6977   4160.38

File: MA2b-00001_spotsmasked.chi
MA2b-00001.tif Azm= 0.00
2-Theta Angle (Degrees)
Intensity
       2500
 1.03978   7636.89
 1.0819   7432.07
 1.12402   7275.57
 1.16614   7156.25
 1.20826   7085.51
 1.25038   7033.53
 1.2925   7041.63
 1.33462   7073.9
 1.37674   7125.81
 1.41886   7257.91
 1.46098   7475.38
 1.5031   7666.59
 1.54522   7671.02
 1.58734   7639.99
 1.62946   7630.86
 1.67158   7654.71
 1.7137   7651.65
 1.75582   7692.17
 1.79794   7781.6
 1.84006   7919.62
 1.88218   8113.7
 1.9243   8320.08
 1.96642   8512.78
 2.00854   8744.24
 2.05066   8968.11
 2.09278   9388.58
 2.1349   12488.6
 2.17702   23916.8
 2.21914   16858.7
 2.26126   12216.1
 2.30338   10477.1
 2.3455   10571.2
 2.38762   10814
 2.42974   11147.7
 2.47186   11462
 2.51398   11786.4
 2.5561   12094.1
 2.59822   12373.9
 2.64034   12573.7
 2.68246   12684.6
 2.72458   12765.3
 2.7667   12723.8
 2.80882   12629.2
 2.85094   12516.8
 2.89306   12367.4
 2.93518   12194.2
 2.9773   12000.6
 3.01942   11781.9
 3.06154   11535.9
 3.10366   11281.4
 3.14578   11111.1
 3.1879   10987.8
 3.23002   10822.2
 3.27214   10741.9
 3.31426   10690.9
 3.35638   10609.7
 3.3985   10608.5
 3.44062   10652.1
 3.48274   10630.8
 3.52486   10621.6
 3.56698   10636.6
 3.6091   10625.3
 3.65122   10485.8
 3.69334   10462.1
 3.73546   10181.5
 3.77758   9751.91
 3.8197   9465.25
 3.86182   9256.96
 3.90394   8933.11
 3.94606   8677.7
 3.98818   8493.76
 4.0303   8333.74
 4.07242   8113.26
 4.11454   8070.9
 4.15666   7911.6
 4.19878   7725.22
 4.2409   7765.79
 4.28302   7967.01
 4.32514   8476.8
 4.36726   8891.52
 4.40938   8237.73
 4.4515   7774.88
 4.49362   7578.75
 4.53574   7059.25
 4.57786   6845.24
 4.61998   6670.29
 4.6621   6593.68
 4.70422   6607.02
 4.74634   7275.04
 4.78846   8724.93
 4.83058   8568.99
 4.8727   6913.04
 4.91482   8118.33
 4.95694   8394.8
 4.99906   7665.94
 5.04118   6504.43
 5.0833   6680.42
 5.12542   20383.8
 5.16754   18879.1
 5.20966   6331.21
 5.25178   5876.89
 5.2939   5780.58
 5.33602   5744.53
 5.37814   5762.87
 5.42026   5841.63
 5.46238   6111.22
 5.5045   7445.48
 5.54662   14091.7
 5.58874   13687.1
 5.63086   8719.17
 5.67298   6677.92
 5.7151   5970.83
 5.75722   5888.87
 5.79934   5787.81
 5.84146   5751.08
 5.88358   5975.29
 5.9257   9332.21
 5.96782   8106.06
 6.00994   6503.9
 6.05206   6028.99
 6.09418   5785.62
 6.1363   5750.74
 6.17842   5759.45
 6.22054   5755.44
 6.26266   5772.77
 6.30478   5819.06
 6.3469   5845.98
 6.38902   5877.42
 6.43114   5903.87
 6.47326   5905.73
 6.51538   5965.97
 6.5575   6068.01
 6.59962   6097.67
 6.64174   6159.74
 6.68386   6329.43
 6.72598   6390.98
 6.7681   6491.44
 6.81022   6632.09
 6.85234   6769.96
 6.89446   7139.41
 6.93658   7694.86
 6.9787   8037.4
 7.02082   8138.06
 7.06294   7635.35
 7.10506   6855.35
 7.14718   6614.42
 7.1893   6540.6
 7.23142   6508.57
 7.27354   6545.92
 7.31566   6569.96
 7.35778   6738.28
 7.3999   6801.02
 7.44202   6868.12
 7.48414   7059
 7.52626   7508.2
 7.56838   7876.15
 7.6105   7576.25
 7.65262   6491.2
 7.69474   6126.68
 7.73686   5981.34
 7.77898   5842.12
 7.8211   5774.4
 7.86322   5712.27
 7.90534   5598.08
 7.94746   5566.3
 7.98958   5538.84
 8.0317   5485.57
 8.07382   5686.77
 8.11594   6133.1
 8.15806   6259.51
 8.20018   6814.8
 8.2423   7274.47
 8.28442   6415
 8.32654   5632.18
 8.36866   5621.46
 8.41078   8549.18
 8.4529   6105.56
 8.49502   6315.59
 8.53714   6248.37
 8.57926   5949.28
 8.62138   5597.63
 8.6635   5467.24
 8.70562   5495.59
 8.74774   5500.37
 8.78986   5463.3
 8.83198   5337.52
 8.8741   5083.8
 8.91622   4949.2
 8.95834   4921.63
 9.00046   4938.58
 9.04258   4872.61
 9.0847   4836.16
 9.12682   4868.11
 9.16894   4953.62
 9.21106   5087.35
 9.25318   5416.84
 9.2953   5704.78
 9.33742   5685.33
 9.37954   5531.82
 9.42166   5341.62
 9.46378   5295.04
 9.5059   5337.24
 9.54802   5274.81
 9.59014   5280.58
 9.63226   5212.99
 9.67438   5084.12
 9.7165   4993.16
 9.75862   4985.54
 9.80074   5229.87
 9.84286   8222.36
 9.88498   8144.48
 9.9271   5569.91
 9.96922   5418.7
 10.0113   5327.64
 10.0535   5186.62
 10.0956   5130.9
 10.1377   5155.76
 10.1798   5185.93
 10.2219   5181.91
 10.2641   5367.79
 10.3062   8205.31
 10.3483   5192.09
 10.3904   5043.55
 10.4325   5043.44
 10.4747   5086.64
 10.5168   5099.68
 10.5589   5081.52
 10.601   5024.66
 10.6431   4977.92
 10.6853   4966.15
 10.7274   5035.19
 10.7695   5040.29
 10.8116   5009.81
 10.8537   4964.76
 10.8959   4906.91
 10.938   4817.33
 10.9801   4759.04
 11.0222   4759.14
 11.0643   4800.59
 11.1065   4947
 11.1486   5017.05
 11.1907   4879.93
 11.2328   4808.47
 11.2749   4724.03
 11.3171   4665.52
 11.3592   4585.89
 11.4013   4526.58
 11.4434   4493.27
 11.4855   4482.08
 11.5277   4438.42
 11.5698   4362.93
 11.6119   4359.98
 11.654   4330.45
 11.6961   4300.31
 11.7383   4287.63
 11.7804   4299.66
 11.8225   4314.33
 11.8646   4371.56
 11.9067   4921.35
 11.9489   4411.28
 11.991   4453.4
 12.0331   4467.81
 12.0752   4471.86
 12.1173   4457.6
 12.1595   4287.26
 12.2016   4143.1
 12.2437   4079.71
 12.2858   4058.07
 12.3279   4052.1
 12.3701   4086.84
 12.4122   4103
 12.4543   4157.23
 12.4964   4183.17
 12.5385   4166.63
 12.5807   4187.25
 12.6228   4230.75
 12.6649   4209.66
 12.6977   4160.1